time,seconds_elapsed,z,y,x
1774158597453094000,0.047093994140625,-1.0103607177734375,-0.403228759765625,-0.1396484375
1774158597473087700,0.067087646484375,-1.008392333984375,-0.3889007568359375,-0.152374267578125
1774158597493081900,0.087081787109375,-0.984100341796875,-0.3340911865234375,-0.13934326171875
1774158597513075700,0.10707568359375,-0.970733642578125,-0.290008544921875,-0.13360595703125
1774158597533069800,0.12706982421875,-0.90826416015625,-0.271636962890625,-0.1112213134765625
1774158597553064000,0.14706396484375,-0.8502960205078125,-0.2954864501953125,-0.1047515869140625
1774158597573057500,0.1670576171875,-0.80596923828125,-0.329864501953125,-0.1093292236328125
1774158597593051600,0.1870517578125,-0.7510223388671875,-0.3806610107421875,-0.1040191650390625
1774158597613045800,0.207045654296875,-0.716064453125,-0.4275665283203125,-0.1002349853515625
1774158597633039600,0.22703955078125,-0.7384490966796875,-0.4503326416015625,-0.099822998046875
1774158597653033700,0.24703369140625,-0.737030029296875,-0.422088623046875,-0.0773773193359375
1774158597673027800,0.26702783203125,-0.7855987548828125,-0.4023590087890625,-0.060516357421875
1774158597693021700,0.287021728515625,-0.7864990234375,-0.3933868408203125,-0.0761566162109375
1774158597713015800,0.307015869140625,-0.73236083984375,-0.407318115234375,-0.053436279296875
1774158597733010000,0.327010009765625,-0.72283935546875,-0.445831298828125,-0.011260986328125
1774158597753003800,0.347003662109375,-0.7576904296875,-0.46466064453125,-0.0209503173828125
1774158597772998000,0.366997802734375,-0.7945556640625,-0.441131591796875,-0.024261474609375
1774158597792992000,0.386991943359375,-0.818023681640625,-0.4027557373046875,-0.0133514404296875
1774158597812985600,0.406985595703125,-0.892791748046875,-0.401824951171875,-0.0112152099609375
1774158597832979700,0.426979736328125,-0.947296142578125,-0.4015655517578125,-0.039764404296875
1774158597852973800,0.446973876953125,-0.88861083984375,-0.4149322509765625,-0.04345703125
1774158597872967700,0.4669677734375,-0.90716552734375,-0.4824676513671875,-0.0423431396484375
1774158597892961800,0.4869619140625,-0.92144775390625,-0.5085296630859375,-0.0603790283203125
1774158597912955600,0.50695556640625,-0.9659576416015625,-0.5089874267578125,-0.100372314453125
1774158597932949800,0.52694970703125,-0.9863739013671875,-0.5052032470703125,-0.1235504150390625
1774158597952943900,0.54694384765625,-1.0246734619140625,-0.549530029296875,-0.131988525390625
1774158597972937700,0.566937744140625,-0.987548828125,-0.5652313232421875,-0.1295013427734375
1774158597992931800,0.586931884765625,-0.9462890625,-0.5960540771484375,-0.091705322265625
1774158598012926000,0.606926025390625,-1.033782958984375,-0.5959930419921875,-0.0693206787109375
1774158598032919600,0.62691943359375,-1.0706329345703125,-0.560638427734375,-0.1389007568359375
1774158598052913700,0.64691357421875,-1.0585784912109375,-0.47344970703125,-0.088958740234375
1774158598072907800,0.66690771484375,-1.0105133056640625,-0.3820343017578125,-0.0096588134765625
1774158598092901600,0.686901611328125,-1.0650634765625,-0.23565673828125,-0.04400634765625
1774158598112895700,0.706895751953125,-1.112518310546875,-0.0749969482421875,-0.12249755859375
1774158598132889900,0.726889892578125,-1.09906005859375,-0.046722412109375,-0.183929443359375
1774158598152883700,0.7468837890625,-1.0721435546875,-0.400634765625,-0.1425323486328125
1774158598172877800,0.7668779296875,-1.01568603515625,-0.527099609375,-0.191162109375
1774158598192872000,0.786871826171875,-0.9290313720703125,-0.369598388671875,-0.1968841552734375
1774158598212865800,0.80686572265625,-0.835662841796875,-0.220489501953125,-0.143035888671875
1774158598232860000,0.82685986328125,-0.870574951171875,-0.2624053955078125,-0.2269134521484375
1774158598252853800,0.846853759765625,-0.9849853515625,-0.33599853515625,-0.257537841796875
1774158598272848600,0.8668486328125,-0.7961883544921875,-0.441253662109375,-0.3110198974609375
1774158598292842800,0.8868427734375,-0.7864837646484375,-0.4655303955078125,-0.3612823486328125
1774158598312836400,0.90683642578125,-0.847381591796875,-0.45001220703125,-0.38165283203125
1774158598332830500,0.92683056640625,-0.664764404296875,-0.3296051025390625,-0.36138916015625
1774158598352824600,0.946824462890625,-0.534393310546875,-0.249664306640625,-0.408843994140625
1774158598372818400,0.966818359375,-0.4443511962890625,-0.38836669921875,-0.5833587646484375
1774158598392812500,0.9868125,-0.479583740234375,-0.4364013671875,-0.6971588134765625
1774158598412806400,1.006806396484375,-0.4559478759765625,-0.4588775634765625,-0.7140350341796875
1774158598432800500,1.026800537109375,-0.3773345947265625,-0.4042510986328125,-0.7575531005859375
1774158598452794600,1.046794677734375,-0.110504150390625,-0.4151153564453125,-0.7486724853515625
1774158598472788500,1.06678857421875,-0.21112060546875,-0.330718994140625,-0.8163604736328125
1774158598492782600,1.086782470703125,-0.22314453125,-0.272369384765625,-0.839874267578125
1774158598512776700,1.106776611328125,-0.29595947265625,-0.2270660400390625,-0.8675689697265625
1774158598532770300,1.126770263671875,-0.302978515625,-0.18011474609375,-0.9020843505859375
1774158598552764400,1.146764404296875,-0.20281982421875,-0.27001953125,-0.90960693359375
1774158598572758500,1.166758544921875,-0.11602783203125,-0.391632080078125,-1.0145416259765625
1774158598592752400,1.18675244140625,-0.1546630859375,-0.2711944580078125,-1.080352783203125
1774158598612746500,1.20674658203125,-0.1912384033203125,-0.2139434814453125,-1.17633056640625
1774158598632740600,1.22674072265625,-0.2169036865234375,-0.06036376953125,-1.1989288330078125
1774158598652734500,1.246734375,-0.333251953125,0.0823822021484375,-1.210052490234375
1774158598672728600,1.266728515625,-0.445343017578125,0.084320068359375,-1.21710205078125
1774158598692722400,1.286722412109375,-0.4983367919921875,0.0958251953125,-1.194244384765625
1774158598712716500,1.306716552734375,-0.571624755859375,0.0891265869140625,-1.171661376953125
1774158598732710700,1.326710693359375,-0.59539794921875,0.1298370361328125,-1.11279296875
1774158598752704500,1.34670458984375,-0.5451812744140625,0.1887664794921875,-0.9862213134765625
1774158598772698400,1.366698486328125,-0.4120941162109375,0.2903289794921875,-0.8155670166015625
1774158598792692500,1.3866923828125,-0.3521270751953125,0.2487030029296875,-0.71807861328125
1774158598812686300,1.406686279296875,-0.3852081298828125,0.1268310546875,-0.731781005859375
1774158598832680400,1.426680419921875,-0.4862213134765625,0.049530029296875,-0.7734222412109375
1774158598852674600,1.446674560546875,-0.49786376953125,0.0347900390625,-0.792572021484375
1774158598872668400,1.46666845703125,-0.41436767578125,0.0323028564453125,-0.8216094970703125
1774158598892662500,1.48666259765625,-0.3384552001953125,0.0984954833984375,-0.841888427734375
1774158598912656600,1.50665673828125,-0.2862701416015625,0.12353515625,-0.8946990966796875
1774158598932650500,1.526650390625,-0.254852294921875,0.1831512451171875,-0.8965301513671875
1774158598952644600,1.54664453125,-0.2310791015625,0.2005157470703125,-0.8216552734375
1774158598972638700,1.566638671875,-0.3266448974609375,0.2501983642578125,-0.7826385498046875
1774158598992632600,1.586632568359375,-0.3685150146484375,0.2707366943359375,-0.812530517578125
1774158599012626400,1.60662646484375,-0.4026947021484375,0.2764434814453125,-0.815093994140625
1774158599032620500,1.62662060546875,-0.3105621337890625,0.2656097412109375,-0.8529815673828125
1774158599052614400,1.646614501953125,-0.1605072021484375,0.180419921875,-0.873138427734375
1774158599072608500,1.6666083984375,-0.22332763671875,0.1927337646484375,-0.834625244140625
1774158599092602400,1.686602294921875,-0.2939453125,0.1340789794921875,-0.80426025390625
1774158599112596500,1.706596435546875,-0.2913360595703125,0.1810302734375,-0.8350067138671875
1774158599132590600,1.726590576171875,-0.33551025390625,0.5011749267578125,-0.78857421875
1774158599152584400,1.74658447265625,-0.09710693359375,0.13665771484375,-0.7751312255859375
1774158599172578600,1.76657861328125,-0.1331634521484375,0.149993896484375,-0.8949432373046875
1774158599192572700,1.78657275390625,-0.199249267578125,0.1205902099609375,-0.9586639404296875
1774158599212566500,1.80656640625,-0.253662109375,0.290771484375,-0.9311981201171875
1774158599232560400,1.826560302734375,-0.40008544921875,0.470245361328125,-0.9725799560546875
1774158599252554500,1.846554443359375,-0.3077850341796875,0.5245819091796875,-1.0497283935546875
1774158599272548400,1.86654833984375,-0.221527099609375,0.5021820068359375,-1.0692138671875
1774158599292542200,1.886542236328125,-0.1428680419921875,0.3664703369140625,-1.0895538330078125
1774158599312536300,1.906536376953125,-0.1377716064453125,0.3879852294921875,-1.1519775390625
1774158599332530200,1.9265302734375,-0.13299560546875,0.46075439453125,-1.1127471923828125
1774158599352524300,1.946524169921875,-0.3253936767578125,0.352447509765625,-1.1202850341796875
1774158599372518400,1.966518310546875,-0.3873748779296875,0.2905426025390625,-1.1899566650390625
1774158599392512300,1.98651220703125,-0.3295440673828125,0.1887664794921875,-1.0346527099609375
1774158599412506400,2.00650634765625,-0.491424560546875,0.1842498779296875,-0.9212188720703125
1774158599432500500,2.02650048828125,-0.4921722412109375,0.0301361083984375,-0.8636474609375
1774158599452494000,2.046494140625,-0.3691864013671875,-0.00897216796875,-0.76995849609375
1774158599472488200,2.06648828125,-0.363555908203125,0.0433197021484375,-0.8536376953125
1774158599492482300,2.086482421875,-0.3563232421875,0.0611572265625,-0.94366455078125
1774158599512476200,2.10647607421875,-0.3926544189453125,0.024749755859375,-1.0325927734375
1774158599532470300,2.12647021484375,-0.3874969482421875,0.1091766357421875,-1.03765869140625
1774158599552464100,2.146464111328125,-0.31671142578125,0.059661865234375,-0.925750732421875
1774158599572458200,2.166458251953125,-0.2910003662109375,0.180816650390625,-0.8777618408203125
1774158599592452400,2.186452392578125,-0.3430938720703125,0.251129150390625,-0.839141845703125
1774158599612446200,2.2064462890625,-0.27423095703125,0.20196533203125,-0.8129425048828125
1774158599632440300,2.2264404296875,-0.218719482421875,0.194427490234375,-0.8589324951171875
1774158599652434400,2.246434326171875,-0.177337646484375,0.260406494140625,-0.8300018310546875
1774158599672428300,2.26642822265625,-0.224090576171875,0.218292236328125,-0.844818115234375
1774158599692421000,2.286421142578125,-0.218658447265625,0.1615447998046875,-0.889404296875
1774158599712415200,2.306415283203125,-0.1844482421875,0.15875244140625,-0.830718994140625
1774158599732409300,2.326409423828125,-0.1649932861328125,0.142547607421875,-0.7763824462890625
1774158599752403200,2.3464033203125,-0.1881103515625,0.1269073486328125,-0.8072052001953125
1774158599772397300,2.366397216796875,-0.172607421875,0.134552001953125,-0.874969482421875
1774158599792391400,2.386391357421875,-0.1434326171875,0.1846771240234375,-0.9327850341796875
1774158599812385300,2.40638525390625,-0.1234283447265625,0.198089599609375,-0.993316650390625
1774158599832379400,2.42637939453125,-0.1369781494140625,0.2785491943359375,-1.0435791015625
1774158599852373200,2.446373291015625,-0.207305908203125,0.410064697265625,-0.982574462890625
1774158599872367400,2.466367431640625,-0.348388671875,0.378509521484375,-0.9718475341796875
1774158599892361200,2.486361328125,-0.0979156494140625,0.245635986328125,-0.99041748046875
1774158599912355000,2.50635498046875,0.020751953125,0.3803253173828125,-1.0958404541015625
1774158599932349200,2.52634912109375,-0.1024932861328125,0.306854248046875,-1.0703887939453125
1774158599952343300,2.54634326171875,0.011474609375,0.37847900390625,-1.1363067626953125
1774158599972337200,2.566337158203125,-0.0388946533203125,0.4111785888671875,-1.1528167724609375
1774158599992331300,2.586331298828125,-0.23077392578125,0.4371490478515625,-1.0867156982421875
1774158600012325400,2.606325439453125,-0.2226409912109375,0.556610107421875,-1.051177978515625
1774158600032319200,2.6263193359375,-0.1426239013671875,0.494964599609375,-0.9903564453125
1774158600052313300,2.646313232421875,-0.1961517333984375,0.5840606689453125,-0.94488525390625
1774158600072307500,2.666307373046875,-0.4991607666015625,0.438446044921875,-1.000030517578125
1774158600092301300,2.68630126953125,-0.23388671875,0.0506744384765625,-1.0473480224609375
1774158600112295200,2.706295166015625,-0.265625,0.132537841796875,-0.9402008056640625
1774158600132289300,2.726289306640625,-0.3488311767578125,0.111236572265625,-0.8937530517578125
1774158600152283100,2.746283203125,-0.3694000244140625,0.1238555908203125,-0.865875244140625
1774158600172277200,2.76627734375,-0.31781005859375,0.2196807861328125,-0.8645782470703125
1774158600192271400,2.786271240234375,-0.23681640625,0.285797119140625,-0.8160400390625
1774158600212265200,2.80626513671875,-0.222808837890625,0.39385986328125,-0.83892822265625
1774158600232259300,2.82625927734375,-0.17840576171875,0.421783447265625,-0.84033203125
1774158600252253200,2.846253173828125,-0.2099151611328125,0.4610748291015625,-0.8971710205078125
1774158600272247300,2.866247314453125,-0.168182373046875,0.3822021484375,-0.9008331298828125
1774158600292241400,2.886241455078125,-0.1330718994140625,0.378448486328125,-0.8428802490234375
1774158600312235300,2.9062353515625,-0.147705078125,0.4033050537109375,-0.7709503173828125
1774158600332229400,2.9262294921875,-0.1466522216796875,0.3385162353515625,-0.751983642578125
1774158600352223500,2.946223388671875,-0.1285247802734375,0.255096435546875,-0.748382568359375
1774158600372217300,2.96621728515625,-0.1092376708984375,0.2056121826171875,-0.7470703125
1774158600392210200,2.986210205078125,-0.1031494140625,0.17132568359375,-0.7545928955078125
1774158600412204300,3.006204345703125,-0.1932220458984375,0.1643829345703125,-0.77972412109375
1774158600432198400,3.026198486328125,-0.2718048095703125,0.176910400390625,-0.7848052978515625
1774158600452192300,3.046192138671875,-0.3090057373046875,0.2179718017578125,-0.811737060546875
1774158600472186400,3.066186279296875,-0.2705841064453125,0.2572021484375,-0.8320465087890625
1774158600492180200,3.08618017578125,-0.216461181640625,0.2363433837890625,-0.90838623046875
1774158600512174300,3.10617431640625,-0.1984100341796875,0.1956329345703125,-0.938079833984375
1774158600532168400,3.12616845703125,-0.2181549072265625,0.168121337890625,-0.982696533203125
1774158600552162300,3.146162353515625,-0.2396087646484375,0.203033447265625,-1.0519256591796875
1774158600572156400,3.166156494140625,-0.295013427734375,0.229522705078125,-1.116485595703125
1774158600592150500,3.186150634765625,-0.30084228515625,0.248138427734375,-1.1101226806640625
1774158600612144000,3.20614404296875,-0.21966552734375,0.18994140625,-1.0993194580078125
1774158600632138200,3.22613818359375,-0.1963348388671875,0.1561279296875,-1.1349945068359375
1774158600652132400,3.24613232421875,-0.287811279296875,0.2207183837890625,-1.1284332275390625
1774158600672126200,3.266126220703125,-0.3252105712890625,0.2692413330078125,-1.12103271484375
1774158600692120300,3.286120361328125,-0.2785491943359375,0.2557830810546875,-1.1335601806640625
1774158600712114400,3.306114501953125,-0.17864990234375,0.1901397705078125,-1.157012939453125
1774158600732108300,3.3261083984375,-0.2220306396484375,0.1465301513671875,-1.20660400390625
1774158600752102400,3.346102294921875,-0.303863525390625,0.1199188232421875,-1.224700927734375
1774158600772096500,3.366096435546875,-0.3414459228515625,0.162384033203125,-1.180877685546875
1774158600792090400,3.38609033203125,-0.4266815185546875,0.2579803466796875,-1.1127777099609375
1774158600812084500,3.40608447265625,-0.42999267578125,0.2616119384765625,-0.991729736328125
1774158600832078300,3.426078369140625,-0.2958526611328125,0.1518402099609375,-0.856781005859375
1774158600852072200,3.446072265625,0.0856781005859375,0.195587158203125,-0.67425537109375
1774158600872066300,3.46606640625,-0.1877288818359375,0.27313232421875,-0.656890869140625
1774158600892060200,3.48606005859375,-0.18115234375,-0.09954833984375,-0.726593017578125
1774158600912054300,3.50605419921875,-0.102294921875,0.2078399658203125,-0.7278594970703125
1774158600932048400,3.52604833984375,-0.1906585693359375,0.236175537109375,-0.714935302734375
1774158600952042200,3.546042236328125,-0.1448822021484375,0.193817138671875,-0.761474609375
1774158600972036400,3.566036376953125,-0.1419677734375,0.1448974609375,-0.7928009033203125
1774158600992029400,3.586029541015625,-0.1244354248046875,0.1653900146484375,-0.809661865234375
1774158601012023600,3.6060234375,-0.222930908203125,0.1359405517578125,-0.9182281494140625
1774158601032017200,3.62601708984375,-0.1496734619140625,0.0808563232421875,-0.953338623046875
1774158601052011300,3.64601123046875,-0.1417388916015625,0.1038665771484375,-0.97052001953125
1774158601072005400,3.66600537109375,-0.088897705078125,0.0777130126953125,-0.9081573486328125
1774158601091999200,3.685999267578125,-0.155914306640625,0.0799560546875,-0.8408966064453125
1774158601111993300,3.705993408203125,-0.216400146484375,0.2694549560546875,-0.8279571533203125
1774158601131987500,3.725987548828125,-0.1759033203125,0.3195037841796875,-0.7903594970703125
1774158601151981300,3.745981201171875,-0.1088714599609375,0.329833984375,-0.777587890625
1774158601171975400,3.765975341796875,-0.1013946533203125,0.2651214599609375,-0.740142822265625
1774158601191969300,3.78596923828125,-0.1268157958984375,0.2953338623046875,-0.7934112548828125
1774158601211963400,3.80596337890625,-0.109161376953125,0.1829986572265625,-0.8697357177734375
1774158601231957500,3.82595751953125,-0.1496124267578125,0.346466064453125,-0.94891357421875
1774158601251951400,3.845951416015625,-0.2204132080078125,0.4931793212890625,-1.13934326171875
1774158601271945200,3.8659453125,-0.3282318115234375,0.5718994140625,-1.3000640869140625
1774158601291939000,3.88593896484375,-0.2868194580078125,0.506195068359375,-1.244049072265625
1774158601311933000,3.905932861328125,-0.2004241943359375,0.60772705078125,-1.3641815185546875
1774158601331927000,3.925927001953125,-0.0997161865234375,0.9005584716796875,-1.139434814453125
1774158601351921200,3.945921142578125,0.004638671875,1.025909423828125,-0.489471435546875
1774158601371915000,3.9659150390625,-0.0544281005859375,0.7163543701171875,-0.7266693115234375
1774158601391909000,3.9859091796875,-0.1761474609375,0.879638671875,-0.9995269775390625
1774158601411903200,4.0059033203125,-0.2618255615234375,0.72772216796875,-1.0102386474609375
1774158601431896300,4.025896240234375,-0.2010498046875,0.5630035400390625,-1.050750732421875
1774158601451890200,4.04589013671875,-0.2279510498046875,0.5821990966796875,-0.81427001953125
1774158601471884300,4.06588427734375,-0.152923583984375,0.534027099609375,-0.610565185546875
1774158601491878100,4.085878173828125,-0.2761077880859375,0.527313232421875,-0.6163330078125
1774158601511872000,4.1058720703125,-0.3363494873046875,0.49847412109375,-0.6635894775390625
1774158601531866000,4.1258662109375,-0.2811737060546875,0.6562347412109375,-0.5504302978515625
1774158601551860000,4.14585986328125,-0.0751495361328125,0.6502685546875,-0.49676513671875
1774158601571854000,4.16585400390625,-0.08697509765625,0.6068267822265625,-0.5600433349609375
1774158601591848200,4.18584814453125,0.1188507080078125,0.623870849609375,-0.6876220703125
1774158601611842000,4.205842041015625,0.0974578857421875,0.743865966796875,-0.6190643310546875
1774158601631836200,4.225836181640625,0.1305389404296875,0.9073333740234375,-0.4550018310546875
1774158601651830300,4.245830322265625,0.1500091552734375,0.872802734375,-0.4147186279296875
1774158601671824100,4.26582421875,-0.0101165771484375,0.7339324951171875,-0.3073272705078125
1774158601691818200,4.285818359375,-0.027374267578125,0.804779052734375,-0.3712615966796875
1774158601711812000,4.30581201171875,-0.0877227783203125,0.7449188232421875,-0.3851165771484375
1774158601731805200,4.32580517578125,-0.058441162109375,0.7165985107421875,-0.5017547607421875
1774158601751799000,4.345799072265625,-0.307861328125,0.6209259033203125,-0.528411865234375
1774158601771793200,4.365793212890625,-0.29022216796875,0.57647705078125,-0.668914794921875
1774158601791787300,4.385787353515625,-0.005706787109375,0.6177825927734375,-0.612945556640625
1774158601811781000,4.405781005859375,0.21844482421875,0.6629638671875,-0.470794677734375
1774158601831775200,4.425775146484375,0.1876373291015625,0.7615203857421875,-0.4324798583984375
1774158601851769000,4.44576904296875,0.3661041259765625,0.686981201171875,-0.411285400390625
1774158601871763200,4.46576318359375,0.231842041015625,0.9590301513671875,-0.580230712890625
1774158601891757300,4.48575732421875,-0.040130615234375,1.0621185302734375,-0.640869140625
1774158601911751000,4.5057509765625,0.0467376708984375,1.2000885009765625,-0.7229766845703125
1774158601931745000,4.5257451171875,-0.0474090576171875,1.1458892822265625,-0.6215972900390625
1774158601951739100,4.5457392578125,-0.1011962890625,1.101837158203125,-0.52734375
1774158601971733000,4.56573291015625,0.077484130859375,0.9516754150390625,-0.5179901123046875
1774158601991727000,4.58572705078125,0.139068603515625,0.9488372802734375,-0.661163330078125
1774158602011720200,4.60572021484375,0.091827392578125,0.7730255126953125,-0.678955078125
1774158602031714300,4.62571435546875,-0.1967315673828125,0.826873779296875,-0.6992645263671875
1774158602051708200,4.645708251953125,-0.494873046875,0.6678314208984375,-0.60589599609375
1774158602071702300,4.665702392578125,-0.503448486328125,0.6015777587890625,-0.5694580078125
1774158602091696000,4.685696044921875,0.1841278076171875,0.9512481689453125,-0.61773681640625
1774158602111690000,4.70568994140625,-0.5167236328125,0.673828125,-0.3443145751953125
1774158602131684000,4.72568408203125,-0.325469970703125,0.5244598388671875,-0.1343994140625
1774158602151678200,4.74567822265625,-0.1787261962890625,0.8544921875,-0.1254730224609375
1774158602171672000,4.765672119140625,0.0495758056640625,1.9090576171875,-0.3487396240234375
1774158602191666200,4.785666259765625,0.1865692138671875,1.8786163330078125,-0.168212890625
1774158602211660000,4.805659912109375,-0.103118896484375,0.8724365234375,0.07489013671875
1774158602231654100,4.825654052734375,-0.149566650390625,0.7179107666015625,-0.0713653564453125
1774158602251647200,4.845647216796875,-0.1669921875,0.6508331298828125,-0.250152587890625
1774158602271641300,4.865641357421875,-0.1306304931640625,0.79693603515625,-0.268585205078125
1774158602291635000,4.885635009765625,-0.2439422607421875,0.894622802734375,-0.3881378173828125
1774158602311629000,4.905629150390625,0.2987823486328125,0.84521484375,-0.2409210205078125
1774158602331623200,4.925623046875,0.089599609375,0.667388916015625,-0.19970703125
1774158602351617000,4.945616943359375,0.0172271728515625,0.700469970703125,-0.206298828125
1774158602371611100,4.965611083984375,0.054351806640625,0.93682861328125,-0.20098876953125
1774158602391605000,4.98560498046875,-0.0157470703125,1.0840911865234375,-0.2619171142578125
1774158602411598800,5.005598876953125,0.116607666015625,0.92974853515625,-0.2411346435546875
1774158602431593000,5.025593017578125,0.0635528564453125,0.91656494140625,-0.2215423583984375
1774158602451587000,5.045587158203125,-0.079620361328125,0.9535369873046875,-0.198333740234375
1774158602471581000,5.065580810546875,-0.126983642578125,1.057281494140625,-0.1953277587890625
1774158602491574000,5.085573974609375,-0.036529541015625,1.0560760498046875,-0.241241455078125
1774158602511568100,5.105568115234375,0.01788330078125,1.0902557373046875,-0.2888641357421875
1774158602531562000,5.12556201171875,0.109100341796875,1.1103515625,-0.318450927734375
1774158602551556000,5.14555615234375,-0.013397216796875,1.121917724609375,-0.2677001953125
1774158602571550200,5.16555029296875,0.027984619140625,1.2007293701171875,-0.293426513671875
1774158602591543800,5.185543701171875,-0.0109100341796875,1.3319549560546875,-0.2781982421875
1774158602611538000,5.205537841796875,-0.0232391357421875,1.2743988037109375,-0.2276763916015625
1774158602631532000,5.225531982421875,-0.1418914794921875,1.1997528076171875,-0.266021728515625
1774158602651526000,5.24552587890625,-0.169952392578125,1.157745361328125,-0.2474365234375
1774158602671520000,5.26552001953125,0.7729339599609375,1.0897979736328125,-0.19873046875
1774158602691513000,5.28551318359375,-0.355987548828125,0.863677978515625,-0.04730224609375
1774158602711507200,5.305507080078125,-0.6093902587890625,0.869964599609375,-0.162750244140625
1774158602731501000,5.3255009765625,-0.736572265625,0.9481964111328125,-0.2399749755859375
1774158602751495200,5.3454951171875,-0.4470977783203125,0.89617919921875,-0.1932525634765625
1774158602771489000,5.365489013671875,-0.2757568359375,0.76263427734375,-0.2341766357421875
1774158602791483000,5.38548291015625,-0.133636474609375,1.0380401611328125,-0.1965789794921875
1774158602811477000,5.40547705078125,-0.172149658203125,0.9770050048828125,-0.11505126953125
1774158602831470800,5.425470947265625,-0.1204681396484375,0.8722381591796875,-0.1627349853515625
1774158602851465000,5.44546484375,0.1780242919921875,0.7956695556640625,-0.2455291748046875
1774158602871459000,5.465458984375,0.719818115234375,0.8825225830078125,-0.239227294921875
1774158602891452200,5.4854521484375,-0.2976837158203125,0.9381866455078125,-0.2091827392578125
1774158602911446000,5.505446044921875,-1.01910400390625,0.900726318359375,-0.146575927734375
1774158602931440000,5.525440185546875,0.0869598388671875,0.44879150390625,-0.1591949462890625
1774158602951434000,5.54543408203125,0.0175628662109375,0.6947479248046875,-0.159332275390625
1774158602971427800,5.565427734375,-0.056915283203125,0.7853240966796875,-0.0613250732421875
1774158602991422000,5.585421875,-0.293182373046875,0.87335205078125,-0.141937255859375
1774158603011416000,5.605416015625,-0.2829132080078125,0.573150634765625,-0.345184326171875
1774158603031410000,5.625409912109375,-0.24859619140625,0.8314208984375,-0.1949310302734375
1774158603051404000,5.645404052734375,-0.1620330810546875,0.7677154541015625,-0.1508941650390625
1774158603071398100,5.665398193359375,-0.2860565185546875,1.007354736328125,-0.1500244140625
1774158603091391000,5.685390869140625,-0.26470947265625,1.1960296630859375,-0.217987060546875
1774158603111385000,5.705385009765625,-0.160797119140625,1.1558380126953125,-0.249053955078125
1774158603131379200,5.725379150390625,-0.2087554931640625,1.0110015869140625,-0.3824920654296875
1774158603151372800,5.745372802734375,-0.2035980224609375,1.1884002685546875,-0.2819976806640625
1774158603171367000,5.765366943359375,-0.0179901123046875,1.2352294921875,-0.260162353515625
1774158603191361000,5.785361083984375,-0.2994842529296875,1.2255401611328125,-0.33587646484375
1774158603211355000,5.80535498046875,-0.1640777587890625,1.2740478515625,-0.323028564453125
1774158603231349000,5.825348876953125,-0.3482513427734375,1.3437957763671875,-0.3673095703125
1774158603251343000,5.845343017578125,-0.662445068359375,1.1326141357421875,-0.46539306640625
1774158603271337000,5.8653369140625,-0.5274810791015625,1.4295806884765625,-0.3734588623046875
1774158603291330000,5.885330078125,-0.34442138671875,0.865570068359375,-0.3311920166015625
1774158603311324200,5.90532421875,-0.3572540283203125,0.6600189208984375,-0.465423583984375
1774158603331318000,5.925318115234375,-0.2741851806640625,0.5804290771484375,-0.5822296142578125
1774158603351312000,5.945311767578125,-0.374359130859375,0.68377685546875,-0.645904541015625
1774158603371306000,5.965305908203125,-0.4942626953125,0.700836181640625,-0.4916229248046875
1774158603391299800,5.9852998046875,-0.5333404541015625,1.013397216796875,-0.302215576171875
1774158603411294000,6.0052939453125,0.1379547119140625,1.1024932861328125,-0.075592041015625
1774158603431288000,6.0252880859375,-0.2052001953125,0.7264862060546875,-0.08837890625
1774158603451282000,6.045281982421875,-0.1883087158203125,0.89849853515625,-0.1969146728515625
1774158603471275000,6.06527490234375,-0.1832122802734375,0.943115234375,-0.196044921875
1774158603491269000,6.08526904296875,-0.1036224365234375,0.6756439208984375,-0.237640380859375
1774158603511263200,6.10526318359375,0.1269378662109375,0.608489990234375,-0.1165313720703125
1774158603531256800,6.1252568359375,-0.108917236328125,0.698150634765625,-0.180633544921875
1774158603551251000,6.1452509765625,-0.210723876953125,0.76873779296875,-0.2254180908203125
1774158603571245000,6.1652451171875,-0.1905059814453125,0.7490386962890625,-0.232666015625
1774158603591239000,6.185239013671875,-0.225982666015625,0.75201416015625,-0.226348876953125
1774158603611233000,6.20523291015625,-0.1344757080078125,0.7979583740234375,-0.2070159912109375
1774158603631227100,6.22522705078125,-0.0950927734375,0.8872833251953125,-0.2236175537109375
1774158603651220000,6.245219970703125,-0.067108154296875,0.823333740234375,-0.2428741455078125
1774158603671214000,6.265214111328125,0.0897674560546875,0.94281005859375,-0.2455596923828125
1774158603691208200,6.285208251953125,-0.068450927734375,1.0128326416015625,-0.3163909912109375
1774158603711201800,6.305201904296875,0.0662384033203125,1.023681640625,-0.3214874267578125
1774158603731196000,6.32519580078125,-0.0315093994140625,1.1060028076171875,-0.2702789306640625
1774158603751190000,6.34518994140625,0.028564453125,1.1899566650390625,-0.339508056640625
1774158603771183900,6.365183837890625,-0.023040771484375,1.24481201171875,-0.2727203369140625
1774158603791178000,6.385177978515625,-0.04058837890625,1.44549560546875,-0.183685302734375
1774158603811172000,6.405172119140625,0.0122528076171875,1.462371826171875,-0.148681640625
1774158603831165200,6.425165283203125,-0.07562255859375,1.26654052734375,-0.2329559326171875
1774158603851159000,6.445158935546875,-0.1041107177734375,1.1405029296875,-0.3318328857421875
1774158603871153200,6.465153076171875,-0.080810546875,1.055023193359375,-0.2669219970703125
1774158603891147000,6.48514697265625,-0.2553253173828125,0.96685791015625,-0.2347564697265625
1774158603911140900,6.505140869140625,-0.39752197265625,0.7902679443359375,-0.26220703125
1774158603931135000,6.525135009765625,-0.4049072265625,0.727264404296875,-0.2841339111328125
1774158603951128800,6.54512890625,-0.4027099609375,0.9470062255859375,-0.2398529052734375
1774158603971123000,6.565123046875,-0.3072052001953125,0.998504638671875,-0.1957244873046875
1774158603991117000,6.585116943359375,-0.3915252685546875,1.0547943115234375,-0.200347900390625
1774158604011110100,6.605110107421875,-0.147674560546875,0.9799346923828125,-0.1366424560546875
1774158604031104000,6.62510400390625,0.1976165771484375,0.91510009765625,-0.0886383056640625
1774158604051098000,6.64509814453125,0.02044677734375,0.8225555419921875,-0.0792083740234375
1774158604071092200,6.66509228515625,-0.113739013671875,0.82061767578125,-0.0970611572265625
1774158604091085800,6.6850859375,0.02069091796875,0.7565765380859375,-0.1452789306640625
1774158604111080000,6.705079833984375,-0.070709228515625,0.71697998046875,-0.229156494140625
1774158604131074000,6.725073974609375,-0.1103973388671875,0.746551513671875,-0.26416015625
1774158604151068000,6.74506787109375,-0.0987091064453125,0.7607574462890625,-0.1834869384765625
1774158604171061000,6.76506103515625,-0.0758056640625,0.79876708984375,-0.124237060546875
1774158604191055000,6.78505517578125,-0.0382537841796875,0.926727294921875,-0.064727783203125
1774158604211049000,6.805049072265625,-0.045257568359375,0.8859710693359375,-0.0936126708984375
1774158604231043000,6.82504296875,-0.03253173828125,0.955841064453125,-0.1937255859375
1774158604251037200,6.845037109375,-0.026824951171875,0.9064483642578125,-0.16961669921875
1774158604271030800,6.86503076171875,-0.0243377685546875,0.8924560546875,-0.128753662109375
1774158604291025000,6.88502490234375,-0.01763916015625,0.920654296875,-0.0771026611328125
1774158604311019000,6.90501904296875,-0.0299530029296875,0.954925537109375,-0.06878662109375
1774158604331012000,6.92501220703125,-0.06121826171875,1.0018310546875,-0.106689453125
1774158604351006000,6.945005859375,-0.1298828125,1.0950469970703125,-0.178558349609375
1774158604371000000,6.965,-0.0309600830078125,1.16998291015625,-0.1690673828125
1774158604390994200,6.984994140625,-0.003662109375,1.2557220458984375,-0.176483154296875
1774158604410987800,7.00498779296875,0.04791259765625,1.1530609130859375,-0.1004180908203125
1774158604430982000,7.02498193359375,0.039215087890625,1.23968505859375,-0.1544189453125
1774158604450976000,7.04497607421875,-0.0947265625,1.350006103515625,-0.2430419921875
1774158604470969900,7.064969970703125,-0.2407989501953125,1.3810272216796875,-0.286041259765625
1774158604490963000,7.084962890625,-0.1785125732421875,1.2091064453125,-0.250701904296875
1774158604510957000,7.10495703125,-0.2259063720703125,0.9143218994140625,-0.225006103515625
1774158604530951000,7.124950927734375,-0.3212432861328125,0.8621368408203125,-0.2733917236328125
1774158604550945000,7.144945068359375,-0.1824188232421875,0.90399169921875,-0.377166748046875
1774158604570939100,7.164939208984375,-0.164642333984375,0.999114990234375,-0.4601593017578125
1774158604590933000,7.18493310546875,-0.1411285400390625,1.0802001953125,-0.4297637939453125
1774158604610926800,7.2049267578125,-0.10968017578125,1.02001953125,-0.3346099853515625
1774158604630921000,7.2249208984375,-0.1303863525390625,1.025726318359375,-0.2213897705078125
1774158604650914000,7.2449140625,-0.0617218017578125,0.94964599609375,-0.164154052734375
1774158604670908000,7.264907958984375,-0.0585479736328125,0.927886962890625,-0.1307830810546875
1774158604690902000,7.284902099609375,-0.126251220703125,0.87255859375,-0.07373046875
1774158604710896000,7.304896240234375,-0.0692291259765625,0.8404998779296875,-0.1091156005859375
1774158604730890000,7.324889892578125,0.152099609375,0.7753143310546875,-0.1272735595703125
1774158604750884000,7.344884033203125,-0.097503662109375,0.7825164794921875,-0.1512908935546875
1774158604770878000,7.3648779296875,0.0796966552734375,0.762969970703125,-0.070831298828125
1774158604790870800,7.384870849609375,0.098358154296875,0.8267822265625,-0.097747802734375
1774158604810865000,7.404864990234375,0.0834197998046875,0.818023681640625,-0.1389617919921875
1774158604830859000,7.42485888671875,-0.0058135986328125,0.814849853515625,-0.1250762939453125
1774158604850852900,7.444852783203125,0.0210723876953125,0.8412933349609375,-0.1366119384765625
1774158604870847000,7.464846923828125,0.1285858154296875,0.7737274169921875,-0.163726806640625
1774158604890841000,7.484841064453125,0.0514984130859375,0.816253662109375,-0.170257568359375
1774158604910835000,7.5048349609375,0.0086822509765625,0.9240264892578125,-0.143341064453125
1774158604930829000,7.5248291015625,0.0301361083984375,0.995147705078125,-0.1372528076171875
1774158604950822000,7.54482177734375,0.068023681640625,1.0699005126953125,-0.16436767578125
1774158604970816000,7.56481591796875,0.027313232421875,1.171966552734375,-0.2275848388671875
1774158604990809900,7.584809814453125,0.0623931884765625,1.242889404296875,-0.2368316650390625
1774158605010804000,7.604803955078125,0.066986083984375,1.271575927734375,-0.151214599609375
1774158605030798000,7.624798095703125,0.0954132080078125,1.418914794921875,-0.0329742431640625
1774158605050792000,7.6447919921875,-0.1270294189453125,1.400634765625,-0.0068511962890625
1774158605070786000,7.6647861328125,-0.142364501953125,1.28515625,-0.0579833984375
1774158605090780000,7.68477978515625,-0.2539825439453125,1.1859283447265625,-0.1843109130859375
1774158605110773000,7.70477294921875,-0.2568359375,0.9577789306640625,-0.2100830078125
1774158605130766800,7.724766845703125,-0.293304443359375,0.834381103515625,-0.1150054931640625
1774158605150761000,7.744760986328125,-0.259033203125,0.876129150390625,-0.0564422607421875
1774158605170754800,7.7647548828125,-0.2050933837890625,0.9522857666015625,-0.0705413818359375
1774158605190749000,7.7847490234375,-0.118194580078125,1.051055908203125,-0.1329345703125
1774158605210743000,7.804742919921875,-0.0928192138671875,1.0924072265625,-0.153533935546875
1774158605230737000,7.82473681640625,-0.0950469970703125,1.0186920166015625,-0.140838623046875
1774158605250730000,7.84472998046875,-0.020294189453125,0.9683074951171875,-0.153045654296875
1774158605270724000,7.86472412109375,-0.0442962646484375,0.9382781982421875,-0.1851806640625
1774158605290718500,7.884718505859375,-0.05145263671875,0.91973876953125,-0.1455230712890625
1774158605310712600,7.904712646484375,-0.063751220703125,0.872894287109375,-0.1419219970703125
1774158605330706700,7.924706787109375,0.0031585693359375,0.833770751953125,-0.145111083984375
1774158605350700500,7.944700439453125,-0.04962158203125,0.71661376953125,-0.0468902587890625
1774158605370694700,7.964694580078125,-0.0643768310546875,0.711700439453125,-0.0433502197265625
1774158605390687700,7.984687744140625,-0.059417724609375,0.7996063232421875,-0.0756378173828125
1774158605410681600,8.004681640625,-0.0076446533203125,0.822540283203125,-0.086212158203125
1774158605430675500,8.024675537109376,0.0003509521484375,0.8209075927734375,-0.09906005859375
1774158605450669600,8.044669677734374,0.0153656005859375,0.895050048828125,-0.0877685546875
1774158605470663400,8.064663330078124,0.037628173828125,0.9018402099609375,-0.0614013671875
1774158605490657500,8.084657470703124,0.066314697265625,0.8917999267578125,-0.0653533935546875
1774158605510651600,8.104651611328125,0.070037841796875,0.906402587890625,-0.106781005859375
1774158605530645500,8.1246455078125,0.05914306640625,1.01947021484375,-0.125823974609375
1774158605550638600,8.144638671875,0.0372314453125,1.0418853759765625,-0.07965087890625
1774158605570632700,8.1646328125,0.055023193359375,1.1036529541015625,-0.063720703125
1774158605590626600,8.18462646484375,0.019775390625,1.140960693359375,-0.07586669921875
1774158605610620400,8.204620361328125,0.09356689453125,1.1932525634765625,-0.0792388916015625
1774158605630614500,8.224614501953125,0.17333984375,1.180084228515625,-0.1404876708984375
1774158605650608600,8.244608642578125,0.0481414794921875,1.238677978515625,-0.1351318359375
1774158605670602500,8.2646025390625,0.1196136474609375,1.3228759765625,-0.23675537109375
1774158605690595600,8.284595703125,0.040863037109375,1.2725830078125,-0.2560882568359375
1774158605710589700,8.304589599609375,-0.0656280517578125,1.2796173095703125,-0.24005126953125
1774158605730583600,8.32458349609375,-0.2424774169921875,1.0343475341796875,-0.296051025390625
1774158605750577700,8.34457763671875,-0.225799560546875,0.875244140625,-0.3766021728515625
1774158605770571800,8.36457177734375,-0.1738739013671875,0.8247833251953125,-0.4506683349609375
1774158605790565400,8.3845654296875,-0.113189697265625,0.8308563232421875,-0.45294189453125
1774158605810559500,8.4045595703125,-0.06903076171875,1.003143310546875,-0.421783447265625
1774158605830552600,8.424552490234374,-0.03662109375,1.1260833740234375,-0.317413330078125
1774158605850546700,8.444546630859374,0.0080718994140625,1.1024627685546875,-0.232452392578125
1774158605870540500,8.46454052734375,0.053009033203125,1.0212554931640625,-0.1757049560546875
1774158605890534700,8.48453466796875,0.071044921875,0.949371337890625,-0.13079833984375
1774158605910528800,8.50452880859375,0.0315704345703125,0.9606781005859375,-0.093658447265625
1774158605930522600,8.524522705078125,0.02215576171875,0.842529296875,-0.031707763671875
1774158605950516700,8.544516845703125,0.045196533203125,0.7926788330078125,0.002899169921875
1774158605970509600,8.564509521484375,0.05902099609375,0.7837066650390625,-0.04937744140625
1774158605990503400,8.58450341796875,0.104156494140625,0.6558685302734375,-0.0582275390625
1774158606010497500,8.60449755859375,0.1378326416015625,0.704742431640625,-0.068695068359375
1774158606030491600,8.62449169921875,0.0992889404296875,0.8022918701171875,-0.1228179931640625
1774158606050485500,8.644485595703125,0.0755157470703125,0.782501220703125,-0.086151123046875
1774158606070479600,8.664479736328126,0.1184234619140625,0.8226470947265625,-0.128753662109375
1774158606090473700,8.6844736328125,0.1092529296875,0.8260650634765625,-0.1974945068359375
1774158606110466600,8.704466552734376,0.07666015625,0.86474609375,-0.1662445068359375
1774158606130460400,8.72446044921875,0.0975341796875,0.90631103515625,-0.0905303955078125
1774158606150454500,8.74445458984375,0.122711181640625,0.961181640625,-0.0281829833984375
1774158606170448600,8.76444873046875,0.0786895751953125,1.0157623291015625,-0.0586700439453125
1774158606190442500,8.7844423828125,0.0640716552734375,1.069091796875,-0.16497802734375
1774158606210436600,8.8044365234375,0.066864013671875,1.1120147705078125,-0.2355804443359375
1774158606230430700,8.8244306640625,0.1286468505859375,1.261810302734375,-0.2920379638671875
1774158606250423600,8.844423583984375,0.2676239013671875,1.281768798828125,-0.1742095947265625
1774158606270417700,8.864417724609375,0.089630126953125,1.399322509765625,-0.026153564453125
1774158606290411500,8.88441162109375,-0.0811004638671875,1.469451904296875,0.03948974609375
1774158606310405400,8.9044052734375,-0.062469482421875,1.45098876953125,-0.0980377197265625
1774158606330399500,8.9243994140625,-0.153564453125,1.25067138671875,-0.237213134765625
1774158606350393600,8.9443935546875,-0.1439666748046875,1.06024169921875,-0.1808624267578125
1774158606370386400,8.964386474609375,-0.146484375,0.82373046875,0.051116943359375
1774158606390380300,8.98438037109375,-0.1530609130859375,0.8226776123046875,0.0517120361328125
1774158606410374400,9.00437451171875,-0.239959716796875,0.893798828125,-0.0713653564453125
1774158606430368500,9.024368408203125,-0.2669525146484375,0.99456787109375,-0.1209259033203125
1774158606450362400,9.0443623046875,-0.228240966796875,1.046356201171875,-0.137664794921875
1774158606470356500,9.0643564453125,-0.2167510986328125,1.0020751953125,-0.1322021484375
1774158606490350600,9.0843505859375,-0.1278076171875,0.9617462158203125,-0.115509033203125
1774158606510343400,9.104343505859376,-0.032684326171875,0.9745941162109375,-0.0886993408203125
1774158606530337500,9.124337646484374,0.089813232421875,0.9739837646484375,-0.0117034912109375
1774158606550331400,9.144331298828124,0.0358428955078125,0.9251251220703125,0.02008056640625
1774158606570325200,9.1643251953125,0.0192108154296875,0.9096221923828125,0.043701171875
1774158606590319400,9.1843193359375,-0.003082275390625,0.8994140625,0.021636962890625
1774158606610313500,9.2043134765625,-0.03155517578125,0.7561187744140625,0.026885986328125
1774158606630307300,9.224307373046875,-0.030731201171875,0.617706298828125,0.0369415283203125
1774158606650300400,9.244300537109375,0.010986328125,0.638824462890625,-0.042449951171875
1774158606670294500,9.26429443359375,0.0236053466796875,0.71490478515625,-0.1005706787109375
1774158606690288600,9.28428857421875,0.05078125,0.8218994140625,-0.093231201171875
1774158606710282500,9.304282470703125,0.038970947265625,0.857269287109375,-0.0930023193359375
1774158606730276600,9.324276611328125,0.0780181884765625,0.8795623779296875,-0.0196075439453125
1774158606750270500,9.3442705078125,0.0759735107421875,1.0211639404296875,-0.0644073486328125
1774158606770263600,9.364263671875,0.0894012451171875,1.0492706298828125,-0.0846405029296875
1774158606790257400,9.38425732421875,0.107879638671875,1.057159423828125,-0.0702362060546875
1774158606810251500,9.40425146484375,0.0806121826171875,1.116607666015625,-0.1052093505859375
1774158606830245400,9.424245361328126,0.123748779296875,1.2468414306640625,-0.148681640625
1774158606850239500,9.444239501953126,0.1335296630859375,1.311065673828125,-0.1700592041015625
1774158606870233600,9.464233642578124,0.1044158935546875,1.3089447021484375,-0.1622467041015625
1774158606890227500,9.4842275390625,0.1015625,1.359588623046875,-0.203521728515625
1774158606910220300,9.50422021484375,0.050079345703125,1.4439544677734375,-0.222015380859375
1774158606930214400,9.52421435546875,-0.0877685546875,1.3163299560546875,-0.26593017578125
1774158606950208500,9.54420849609375,-0.1449432373046875,1.202667236328125,-0.2695465087890625
1774158606970202400,9.564202392578125,-0.2203216552734375,0.974945068359375,-0.32489013671875
1774158606990196500,9.584196533203125,-0.1320037841796875,0.786651611328125,-0.4498748779296875
1774158607010190600,9.604190673828125,-0.0467529296875,0.7822113037109375,-0.5713958740234375
1774158607030183700,9.62418359375,-0.085723876953125,0.9832000732421875,-0.55859375
1774158607050177500,9.644177490234375,-0.0179443359375,1.0711669921875,-0.5029144287109375
1774158607070171400,9.66417138671875,0.027069091796875,0.962677001953125,-0.38775634765625
1774158607090165500,9.68416552734375,0.0763397216796875,0.89776611328125,-0.2477569580078125
1774158607110159400,9.704159423828125,0.068634033203125,0.8797454833984375,-0.1387939453125
1774158607130153500,9.724153564453125,0.0185394287109375,0.81201171875,-0.104766845703125
1774158607150146600,9.744146484375,0.061737060546875,0.6750640869140625,-0.1162567138671875
1774158607170140400,9.764140380859375,0.07879638671875,0.6778106689453125,-0.1011962890625
1774158607190134500,9.784134521484376,0.08526611328125,0.7702484130859375,-0.09954833984375
1774158607210128600,9.804128662109376,0.1185760498046875,0.784820556640625,-0.077850341796875
1774158607230122500,9.82412255859375,0.124847412109375,0.743621826171875,-0.135833740234375
1774158607250116600,9.84411669921875,0.17218017578125,0.7192535400390625,-0.2056884765625
1774158607270110500,9.8641103515625,0.21246337890625,0.7992095947265625,-0.2160491943359375
1774158607290103300,9.884103271484374,0.2080078125,0.8746337890625,-0.1897735595703125
1774158607310097200,9.90409716796875,0.2004547119140625,0.8838348388671875,-0.16204833984375
1774158607330091300,9.92409130859375,0.2085113525390625,0.849212646484375,-0.1711883544921875
1774158607350085400,9.94408544921875,0.1981964111328125,0.84765625,-0.1719970703125
1774158607370079200,9.964079345703125,0.107177734375,0.9882049560546875,-0.25762939453125
1774158607390073300,9.9840732421875,0.016998291015625,1.0210418701171875,-0.254913330078125
1774158607410066400,10.00406640625,0.1130828857421875,1.08428955078125,-0.2179412841796875
1774158607430060000,10.02406005859375,0.2275543212890625,1.17608642578125,-0.2317047119140625
1774158607450054100,10.04405419921875,0.3541107177734375,1.238861083984375,-0.19580078125
1774158607470048300,10.06404833984375,0.17291259765625,1.4903564453125,-0.130096435546875
1774158607490042000,10.0840419921875,0.0951995849609375,1.5387420654296875,-0.1573638916015625
1774158607510036200,10.1040361328125,-0.0031280517578125,1.393402099609375,-0.3233489990234375
1774158607530030300,10.1240302734375,-0.0911865234375,1.1657562255859375,-0.392333984375
1774158607550023400,10.1440234375,-0.09783935546875,0.9654541015625,-0.237640380859375
1774158607570017300,10.164017333984376,-0.039581298828125,0.8386688232421875,-0.0696563720703125
1774158607590011400,10.184011474609376,-0.160247802734375,0.90753173828125,-0.1766357421875
1774158607610005500,10.204005615234376,-0.2165679931640625,1.074554443359375,-0.2837982177734375
1774158607629999000,10.2239990234375,-0.146026611328125,1.1262054443359375,-0.1866455078125
1774158607649993200,10.2439931640625,-0.0134735107421875,1.088470458984375,-0.053375244140625
1774158607669986300,10.263986328125,0.10845947265625,1.025390625,-0.0430755615234375
1774158607689980200,10.283980224609374,0.1264190673828125,0.9939422607421875,-0.04327392578125
1774158607709974300,10.303974365234374,0.124908447265625,0.9841461181640625,-0.0483551025390625
1774158607729968400,10.323968505859375,0.0595245361328125,0.823394775390625,-0.122283935546875
1774158607749962200,10.343962158203125,0.0478973388671875,0.717926025390625,-0.1540985107421875
1774158607769956400,10.363956298828125,0.0941009521484375,0.640777587890625,-0.1340484619140625
1774158607789949200,10.38394921875,0.0302886962890625,0.6425933837890625,-0.105255126953125
1774158607809943300,10.403943359375,-0.0355682373046875,0.7050628662109375,-0.145263671875
1774158607829937200,10.423937255859375,0.0129547119140625,0.746185302734375,-0.10430908203125
1774158607849931300,10.44393115234375,0.0530242919921875,0.796661376953125,-0.0800628662109375
1774158607869925400,10.46392529296875,0.109039306640625,0.795166015625,-0.0483856201171875
1774158607889919200,10.483919189453125,0.1318817138671875,0.8473663330078125,-0.110626220703125
1774158607909912300,10.503912353515625,0.12799072265625,0.895965576171875,-0.0771026611328125
1774158607929906400,10.523906494140626,0.0468902587890625,0.97113037109375,-0.0501251220703125
1774158607949900000,10.543900146484376,0.05963134765625,1.0166473388671875,-0.067169189453125
1774158607969894100,10.56389404296875,0.0896759033203125,1.0287628173828125,-0.1246795654296875
1774158607989888300,10.58388818359375,0.0577850341796875,1.06695556640625,-0.1365203857421875
1774158608009882000,10.603882080078124,0.1047821044921875,1.1602325439453125,-0.14593505859375
1774158608029875200,10.623875244140624,0.147125244140625,1.2063751220703125,-0.1368865966796875
1774158608049869300,10.643869384765624,0.14202880859375,1.2935791015625,-0.125244140625
1774158608069863400,10.663863525390624,0.12982177734375,1.33062744140625,-0.0986785888671875
1774158608089857300,10.683857177734374,0.1941986083984375,1.33734130859375,-0.1474151611328125
1774158608109851400,10.703851318359375,0.0943450927734375,1.3099212646484375,-0.234710693359375
1774158608129845500,10.723845458984375,-0.0943756103515625,1.2295989990234375,-0.3035125732421875
1774158608149838300,10.74383837890625,-0.2359161376953125,1.0569000244140625,-0.3087615966796875
1774158608169832200,10.763832275390625,-0.1634979248046875,0.7952728271484375,-0.353515625
1774158608189826300,10.783826416015625,-0.0326080322265625,0.5977935791015625,-0.467926025390625
1774158608209820200,10.803820068359375,0.1099395751953125,0.7349853515625,-0.4859619140625
1774158608229814300,10.823814208984375,0.1218109130859375,1.0295562744140625,-0.4830780029296875
1774158608249808400,10.843808349609375,0.06689453125,1.2063140869140625,-0.5273590087890625
1774158608269801500,10.863801513671875,0.02581787109375,1.1713714599609375,-0.429290771484375
1774158608289794800,10.883794921875,0.040435791015625,1.0449676513671875,-0.3079833984375
1774158608309789000,10.903788818359375,0.0781097412109375,0.910430908203125,-0.199676513671875
1774158608329783000,10.923782958984376,0.0094146728515625,0.7989501953125,-0.0913848876953125
1774158608349777000,10.94377685546875,0.0308380126953125,0.7620697021484375,-0.0147247314453125
1774158608369771000,10.96377099609375,0.048919677734375,0.7063751220703125,-0.013946533203125
1774158608389764000,10.98376416015625,0.0593719482421875,0.6734619140625,-0.0605621337890625
1774158608409758200,11.00375830078125,0.08892822265625,0.6937713623046875,-0.1533050537109375
1774158608429752000,11.023751953125,0.177215576171875,0.7434539794921875,-0.2417144775390625
1774158608449746200,11.04374609375,0.169647216796875,0.765594482421875,-0.2414703369140625
1774158608469740000,11.063739990234374,0.156463623046875,0.76617431640625,-0.178955078125
1774158608489734000,11.08373388671875,0.1190948486328125,0.7989959716796875,-0.18780517578125
1774158608509727000,11.10372705078125,0.1563873291015625,0.8508758544921875,-0.216461181640625
1774158608529721000,11.12372119140625,0.12713623046875,0.9037628173828125,-0.21954345703125
1774158608549715000,11.14371484375,0.1906585693359375,0.875762939453125,-0.147369384765625
1774158608569709000,11.163708984375,0.1940155029296875,0.91912841796875,-0.1852874755859375
1774158608589703200,11.183703125,0.1038665771484375,0.9880218505859375,-0.2983856201171875
1774158608609697000,11.203697021484375,0.0613250732421875,1.0885772705078125,-0.3105010986328125
1774158608629689900,11.22368994140625,0.12261962890625,1.106597900390625,-0.317291259765625
1774158608649684000,11.24368408203125,0.3440704345703125,1.1744384765625,-0.34893798828125
1774158608669678000,11.263677978515625,0.2600555419921875,1.400604248046875,-0.2230072021484375
1774158608689672000,11.283671875,0.0631256103515625,1.541107177734375,-0.0993194580078125
1774158608709666000,11.303666015625,-0.06195068359375,1.444915771484375,-0.22552490234375
1774158608729660200,11.32366015625,-0.0521240234375,1.1780853271484375,-0.3545989990234375
1774158608749653000,11.343653076171876,0.0441741943359375,0.9293670654296875,-0.25738525390625
1774158608769647000,11.363647216796876,0.0324859619140625,0.862701416015625,-0.20318603515625
1774158608789641000,11.383640869140624,-0.138671875,0.975433349609375,-0.2724456787109375
1774158608809634800,11.403634765625,-0.1924896240234375,1.1049041748046875,-0.3398284912109375
1774158608829629000,11.42362890625,-0.0709686279296875,1.17333984375,-0.300689697265625
1774158608849622000,11.4436220703125,-0.011871337890625,1.0958404541015625,-0.25177001953125
1774158608869616000,11.4636162109375,0.0064849853515625,1.0468902587890625,-0.22601318359375
1774158608889610000,11.48360986328125,0.129730224609375,0.9804229736328125,-0.2924041748046875
1774158608909604000,11.50360400390625,0.102325439453125,1.0612640380859375,-0.2691497802734375
1774158608929598200,11.52359814453125,0.150299072265625,0.8323516845703125,-0.0669097900390625
1774158608949592000,11.543592041015625,0.1817626953125,0.758636474609375,-0.1366729736328125
1774158608969585000,11.5635849609375,0.0396881103515625,0.6080780029296875,-0.179656982421875
1774158608989579000,11.5835791015625,-0.0014801025390625,0.5844879150390625,-0.1953277587890625
1774158609009572900,11.60357275390625,-0.003509521484375,0.629974365234375,-0.249725341796875
1774158609029567000,11.62356689453125,0.0384521484375,0.6338348388671875,-0.2122344970703125
1774158609049561000,11.64356103515625,0.036529541015625,0.670135498046875,-0.138092041015625
1774158609069555000,11.663554931640626,0.0849151611328125,0.7340087890625,-0.0949554443359375
1774158609089548000,11.683548095703125,0.142333984375,0.85992431640625,-0.1412353515625
1774158609109542100,11.703542236328126,0.1224212646484375,0.88079833984375,-0.1100006103515625
1774158609129536000,11.723535888671876,0.14691162109375,0.8887481689453125,-0.0407562255859375
1774158609149529900,11.74352978515625,0.2161407470703125,1.0042266845703125,-0.0262298583984375
1774158609169524000,11.76352392578125,0.06536865234375,1.1009063720703125,-0.1930694580078125
1774158609189518000,11.78351806640625,0.2289581298828125,1.1584625244140625,-0.2036895751953125
1774158609209511200,11.80351123046875,0.1582489013671875,1.11627197265625,-0.235687255859375
1774158609229505000,11.823505126953124,0.158843994140625,1.22705078125,-0.227569580078125
1774158609249499100,11.8434990234375,0.2561798095703125,1.2621307373046875,-0.1744842529296875
1774158609269493000,11.863492919921875,0.356689453125,1.194610595703125,-0.2366943359375
1774158609289488000,11.88348779296875,0.2205047607421875,1.3961639404296875,-0.3249359130859375
1774158609309482000,11.90348193359375,0.1657867431640625,1.2983245849609375,-0.2446441650390625
1774158609329474800,11.923474853515625,0.0502777099609375,1.185302734375,-0.2103729248046875
1774158609349469000,11.943468994140625,-0.1188201904296875,1.0541534423828125,-0.2897796630859375
1774158609369462800,11.963462890625,-0.1281280517578125,0.8925933837890625,-0.373809814453125
1774158609389456600,11.98345654296875,0.090911865234375,0.6944122314453125,-0.4508819580078125
1774158609409450800,12.00345068359375,0.205047607421875,0.8576202392578125,-0.5529937744140625
1774158609429443800,12.02344384765625,0.1451568603515625,0.9761199951171875,-0.588592529296875
1774158609449438000,12.04343798828125,0.1272430419921875,0.9888916015625,-0.5003204345703125
1774158609469431800,12.063431884765626,0.0626068115234375,1.13427734375,-0.26513671875
1774158609489426000,12.083426025390626,0.0679931640625,1.1075286865234375,-0.18475341796875
1774158609509420000,12.103419921875,0.1126251220703125,0.9764556884765625,-0.211273193359375
1774158609529414000,12.123413818359374,-0.019805908203125,0.92230224609375,-0.16363525390625
1774158609549406700,12.14340673828125,0.009033203125,0.8128509521484375,-0.0331573486328125
1774158609569400800,12.16340087890625,0.1054229736328125,0.74273681640625,0.00335693359375
1774158609589394700,12.183394775390624,0.152008056640625,0.6710052490234375,-0.0399169921875
1774158609609388800,12.203388916015625,0.0037384033203125,0.6324615478515625,-0.1497039794921875
1774158609629383000,12.2233828125,-0.022796630859375,0.5460662841796875,-0.2102813720703125
1774158609649376800,12.243376708984375,0.0506439208984375,0.61773681640625,-0.2029266357421875
1774158609669369900,12.263369873046875,0.1053924560546875,0.7676239013671875,-0.2004547119140625
1774158609689364000,12.283364013671875,0.19500732421875,0.8814849853515625,-0.1786041259765625
1774158609709357800,12.30335791015625,-0.005584716796875,0.8529205322265625,-0.190399169921875
1774158609729351700,12.3233515625,-0.0774993896484375,0.7858123779296875,-0.2327880859375
1774158609749345800,12.343345703125,0.1187744140625,0.8384552001953125,-0.1698455810546875
1774158609769339000,12.3633388671875,0.18585205078125,0.9958648681640625,-0.0610504150390625
1774158609789333000,12.3833330078125,-0.0618438720703125,1.1230316162109375,0.034454345703125
1774158609809326800,12.403326904296875,-0.130584716796875,1.263092041015625,-0.023345947265625
1774158609829321000,12.423321044921876,0.08709716796875,1.3912353515625,-0.149932861328125
1774158609849314800,12.443314697265626,0.2779998779296875,1.3897705078125,-0.1740264892578125
1774158609869309000,12.463308837890626,0.05169677734375,1.4502105712890625,0.0092620849609375
1774158609889301800,12.4833017578125,-0.2537841796875,1.5551910400390625,0.0024871826171875
1774158609909295900,12.5032958984375,-0.23797607421875,1.3486785888671875,-0.079803466796875
1774158609929289700,12.523289794921874,-0.296630859375,1.122222900390625,-0.12109375
1774158609949283800,12.543283935546874,-0.307952880859375,0.916351318359375,-0.1629638671875
1774158609969278000,12.56327783203125,-0.2564697265625,0.8446197509765625,-0.167022705078125
1774158609989271800,12.583271728515625,-0.2140350341796875,1.0086517333984375,-0.221282958984375
1774158610009265000,12.603264892578125,-0.267822265625,1.170928955078125,-0.255859375
1774158610029258800,12.6232587890625,-0.4055633544921875,1.170867919921875,-0.200897216796875
1774158610049252900,12.6432529296875,-0.3639984130859375,1.0882720947265625,-0.1432342529296875
1774158610069246700,12.663246826171875,-0.16595458984375,0.985443115234375,-0.1052703857421875
1774158610089240800,12.68324072265625,-0.0895843505859375,0.9119873046875,-0.1121978759765625
1774158610109234000,12.70323388671875,-0.0393218994140625,0.8523101806640625,-0.134124755859375
1774158610129227800,12.723227783203125,-0.0150299072265625,0.7931976318359375,-0.2014007568359375
1774158610149222000,12.743221923828125,0.02069091796875,0.6972198486328125,-0.252532958984375
1774158610169216000,12.763216064453125,0.2374114990234375,0.566314697265625,-0.2756500244140625
1774158610189209900,12.7832099609375,0.0132904052734375,0.59375,-0.1511993408203125
1774158610209204000,12.803203857421876,-0.1149749755859375,0.6185150146484375,-0.0371551513671875
1774158610229196800,12.82319677734375,-0.0976715087890625,0.6607666015625,-0.023040771484375
1774158610249191000,12.84319091796875,-0.0637969970703125,0.7284088134765625,-0.0391693115234375
1774158610269184800,12.863184814453126,-0.06884765625,0.7489166259765625,-0.0758056640625
1774158610289177300,12.88317724609375,-0.11846923828125,0.801544189453125,-0.080963134765625
1774158610309171500,12.90317138671875,-0.0661163330078125,0.8792724609375,-0.0899200439453125
1774158610329165600,12.92316552734375,0.0005645751953125,1.022796630859375,-0.1106719970703125
1774158610349158400,12.943158447265626,-0.0062103271484375,1.163726806640625,-0.15606689453125
1774158610369152500,12.963152587890624,-0.07049560546875,1.2537078857421875,-0.20574951171875
1774158610389146600,12.983146728515624,-0.044036865234375,1.3209228515625,-0.202667236328125
1774158610409140500,13.003140380859374,0.0846710205078125,1.4230194091796875,-0.1103668212890625
1774158610429134300,13.02313427734375,0.0804290771484375,1.4696807861328125,-0.1077728271484375
1774158610449127400,13.04312744140625,-0.13922119140625,1.4440155029296875,-0.24420166015625
1774158610469121500,13.06312158203125,-0.1392059326171875,1.298583984375,-0.3652191162109375
1774158610489115400,13.083115478515625,-0.2659454345703125,1.111785888671875,-0.46258544921875
1774158610509109500,13.103109619140625,-0.31378173828125,0.914215087890625,-0.51361083984375
1774158610529103600,13.123103515625,-0.24896240234375,0.782989501953125,-0.501556396484375
1774158610549097500,13.143097412109375,-0.161773681640625,0.8217315673828125,-0.4858245849609375
1774158610569090300,13.16309033203125,-0.1328125,1.0644073486328125,-0.399749755859375
1774158610589084400,13.18308447265625,-0.118988037109375,1.1488037109375,-0.266510009765625
1774158610609078500,13.20307861328125,-0.032012939453125,1.0700531005859375,-0.2926177978515625
1774158610629072400,13.223072265625,-0.045074462890625,0.9901885986328125,-0.292755126953125
1774158610649066500,13.24306640625,-0.034149169921875,0.899658203125,-0.22369384765625
1774158610669060400,13.263060302734376,-0.07415771484375,0.7989959716796875,-0.16265869140625
1774158610689053400,13.283053466796876,-0.0789337158203125,0.7185821533203125,-0.110137939453125
1774158610709047600,13.303047607421876,-0.044464111328125,0.6618194580078125,-0.05718994140625
1774158610729041700,13.323041748046874,0.0112457275390625,0.655364990234375,-0.048187255859375
1774158610749035300,13.34303515625,0.038818359375,0.67626953125,-0.0617218017578125
1774158610769029400,13.363029296875,0.044219970703125,0.717437744140625,-0.0751800537109375
1774158610789022500,13.3830224609375,-0.001220703125,0.7498321533203125,-0.10858154296875
1774158610809016600,13.4030166015625,0.0140533447265625,0.7735443115234375,-0.136932373046875
1774158610829010400,13.423010498046875,0.065216064453125,0.8144073486328125,-0.1313629150390625
1774158610849004500,13.443004638671875,0.0988311767578125,0.857147216796875,-0.1086578369140625
1774158610868998400,13.462998291015625,0.0460968017578125,0.9093475341796875,-0.115997314453125
1774158610888992500,13.482992431640625,0.001495361328125,0.990203857421875,-0.1385650634765625
1774158610908985300,13.5029853515625,-0.0404052734375,1.0754547119140625,-0.1726837158203125
1774158610928979500,13.5229794921875,-0.06219482421875,1.170074462890625,-0.20989990234375
1774158610948973300,13.542973388671875,0.0194549560546875,1.224273681640625,-0.2566680908203125
1774158610968967400,13.562967529296875,0.389617919921875,1.257843017578125,-0.250732421875
1774158610988961500,13.58296142578125,0.139007568359375,1.4523468017578125,-0.094512939453125
1774158611008955400,13.602955322265625,-0.3160552978515625,1.436492919921875,-0.06634521484375
1774158611028948500,13.622948486328125,-0.3922576904296875,1.307159423828125,-0.181549072265625
1774158611048942600,13.642942626953126,-0.222625732421875,1.0879364013671875,-0.2859649658203125
1774158611068936700,13.662936767578126,-0.18426513671875,0.9786224365234375,-0.3284912109375
1774158611088930300,13.682930419921876,-0.241729736328125,1.0100250244140625,-0.3091888427734375
1774158611108924400,13.70292431640625,-0.3223724365234375,0.98236083984375,-0.2216644287109375
1774158611128917500,13.72291748046875,-0.3334197998046875,1.1697845458984375,-0.1877899169921875
1774158611148911400,13.742911376953124,-0.1949310302734375,1.05938720703125,-0.124053955078125
1774158611168905500,13.762905517578124,-0.109344482421875,1.08154296875,-0.167022705078125
1774158611188899600,13.782899658203124,-0.0718536376953125,0.911865234375,-0.1968536376953125
1774158611208893400,13.8028935546875,-0.1016845703125,0.8323974609375,-0.2398834228515625
1774158611228887600,13.822887451171875,-0.053192138671875,0.82977294921875,-0.184478759765625
1774158611248880400,13.84288037109375,-0.002685546875,0.73211669921875,-0.0963897705078125
1774158611268874500,13.86287451171875,-0.0394744873046875,0.7444305419921875,-0.097259521484375
1774158611288869000,13.882869140625,-0.005279541015625,0.6744232177734375,-0.071746826171875
1774158611308863200,13.90286328125,-0.0461578369140625,0.6659393310546875,-0.104400634765625
1774158611328857000,13.922857177734375,-0.05072021484375,0.6730499267578125,-0.094024658203125
1774158611348851200,13.942851318359375,-0.0641937255859375,0.7466583251953125,-0.0706329345703125
1774158611368844000,13.962843994140625,-0.065338134765625,0.82373046875,-0.099700927734375
1774158611388838100,13.982838134765625,-0.036163330078125,0.86968994140625,-0.0896453857421875
1774158611408832000,14.00283203125,-0.0326080322265625,0.931396484375,-0.0844573974609375
1774158611428826000,14.022826171875,-0.032318115234375,0.9193572998046875,-0.0643310546875
1774158611448820200,14.0428203125,-0.0137786865234375,1.0226898193359375,-0.0899810791015625
1774158611468813000,14.06281298828125,-0.0058746337890625,1.1030426025390625,-0.10028076171875
1774158611488807200,14.08280712890625,0.0302734375,1.1468658447265625,-0.1194915771484375
1774158611508801000,14.102801025390624,-0.0004119873046875,1.2517852783203125,-0.098663330078125
1774158611528795000,14.122794921875,0.0169677734375,1.2349395751953125,-0.0645599365234375
1774158611548789000,14.1427890625,0.0662689208984375,1.1763458251953125,-0.06707763671875
1774158611568783000,14.162783203125,-0.1173553466796875,1.2710418701171875,-0.1981048583984375
1774158611588776200,14.182776123046875,-0.185516357421875,1.2431640625,-0.3077239990234375
1774158611608770000,14.20277001953125,-0.220916748046875,1.0915679931640625,-0.3269805908203125
1774158611628764200,14.22276416015625,-0.2084503173828125,0.993927001953125,-0.3200225830078125
1774158611648758300,14.24275830078125,-0.14453125,0.941009521484375,-0.3578033447265625
1774158611668752100,14.262752197265625,-0.2182464599609375,1.051666259765625,-0.4239349365234375
1774158611688745000,14.282744873046875,-0.2337493896484375,1.105712890625,-0.4279937744140625
1774158611708739000,14.302739013671875,-0.1280975341796875,1.170928955078125,-0.396087646484375
1774158611728733200,14.322733154296875,-0.0317535400390625,1.1897735595703125,-0.278778076171875
1774158611748727000,14.34272705078125,-0.00048828125,1.1004486083984375,-0.1661834716796875
1774158611768721200,14.36272119140625,-0.0359954833984375,0.9805450439453125,-0.1957550048828125
1774158611788715000,14.382715087890626,-0.0751190185546875,0.7435760498046875,-0.14263916015625
1774158611808708000,14.4027080078125,-0.08819580078125,0.628875732421875,-0.1030426025390625
1774158611828702200,14.4227021484375,-0.097381591796875,0.6179656982421875,-0.084075927734375
1774158611848696000,14.442696044921876,-0.1248626708984375,0.678619384765625,-0.073699951171875
1774158611868690000,14.46268994140625,-0.0085601806640625,0.715057373046875,-0.07257080078125
1774158611888684000,14.48268408203125,0.12420654296875,0.6982421875,-0.085845947265625
1774158611908677000,14.502677001953124,0.1515350341796875,0.7570648193359375,-0.1331787109375
1774158611928671200,14.522671142578124,0.103759765625,0.8170318603515625,-0.1694488525390625
1774158611948665000,14.5426650390625,0.042327880859375,0.795928955078125,-0.165069580078125
1774158611968659200,14.5626591796875,0.01214599609375,0.80706787109375,-0.1904754638671875
1774158611988653000,14.582653076171875,0.0319061279296875,0.8941192626953125,-0.2372589111328125
1774158612008647200,14.602647216796875,0.1069488525390625,0.9708709716796875,-0.246002197265625
1774158612028640000,14.622639892578125,0.066986083984375,1.0645904541015625,-0.2161102294921875
1774158612048634000,14.642634033203125,-0.074188232421875,1.186737060546875,-0.226043701171875
1774158612068628000,14.6626279296875,-0.1105499267578125,1.2335357666015625,-0.271514892578125
1774158612088622000,14.6826220703125,0.170196533203125,1.19635009765625,-0.2912750244140625
1774158612108616200,14.7026162109375,0.369476318359375,1.406646728515625,-0.114349365234375
1774158612128609300,14.722609375,-0.072662353515625,1.5214385986328125,-0.017486572265625
1774158612148603100,14.74260302734375,-0.352752685546875,1.4591064453125,-0.076324462890625
1774158612168597000,14.762596923828125,-0.262359619140625,1.1935272216796875,-0.29779052734375
1774158612188591000,14.782591064453126,-0.2605743408203125,0.9019622802734375,-0.3240203857421875
1774158612208585000,14.8025849609375,-0.25543212890625,0.8329620361328125,-0.2467041015625
1774158612228579000,14.8225791015625,-0.2697296142578125,0.8947906494140625,-0.172454833984375
1774158612248572200,14.842572265625,-0.3055419921875,1.098419189453125,-0.14422607421875
1774158612268566000,14.86256591796875,-0.295867919921875,1.201080322265625,-0.13427734375
1774158612288559400,14.882559326171876,-0.1543121337890625,1.026336669921875,-0.104095458984375
1774158612308553500,14.902553466796874,-0.055450439453125,0.9381561279296875,-0.146728515625
1774158612328547600,14.922547607421874,-0.1196136474609375,0.905487060546875,-0.196624755859375
1774158612348540400,14.94254052734375,-0.1063385009765625,0.8509674072265625,-0.2408905029296875
1774158612368534300,14.9625341796875,-0.0677642822265625,0.77392578125,-0.244537353515625
1774158612388528400,14.9825283203125,0.06781005859375,0.7459564208984375,-0.1970062255859375
1774158612408522200,15.002522216796875,0.231414794921875,0.7301483154296875,-0.1022186279296875
1774158612428516400,15.022516357421875,-0.0665435791015625,0.6702117919921875,-0.0792083740234375
1774158612448510500,15.042510498046875,-0.0786895751953125,0.6557769775390625,-0.0828094482421875
1774158612468503600,15.062503662109375,-0.1727142333984375,0.701141357421875,-0.047760009765625
1774158612488497400,15.082497314453125,-0.0442962646484375,0.7350616455078125,0.0053253173828125
1774158612508491300,15.1024912109375,-0.0359344482421875,0.86077880859375,0.00689697265625
1774158612528485400,15.1224853515625,-0.0505218505859375,0.8967742919921875,-0.0585174560546875
1774158612548479200,15.142479248046875,-0.01727294921875,0.9285736083984375,-0.087066650390625
1774158612568472300,15.162472412109375,-0.0326080322265625,0.992950439453125,-0.1013031005859375
1774158612588466400,15.182466552734375,-0.0402984619140625,1.074066162109375,-0.1213531494140625
1774158612608460500,15.20246044921875,-0.0512542724609375,1.1589813232421875,-0.1585845947265625
1774158612628454400,15.222454345703126,-0.083404541015625,1.1799468994140625,-0.149169921875
1774158612648448500,15.242448486328126,-0.0665740966796875,1.280120849609375,-0.078765869140625
1774158612668442400,15.2624423828125,0.081695556640625,1.33697509765625,0.0371551513671875
1774158612688435200,15.282435302734376,0.1446685791015625,1.394866943359375,0.102752685546875
1774158612708429300,15.30242919921875,-0.02996826171875,1.423675537109375,-0.0317230224609375
1774158612728423400,15.32242333984375,-0.1840667724609375,1.340240478515625,-0.2596282958984375
1774158612748417300,15.342417236328124,-0.307342529296875,1.11260986328125,-0.384796142578125
1774158612768411400,15.362411376953125,-0.2668914794921875,0.9198455810546875,-0.381011962890625
1774158612788404500,15.382404541015624,-0.2553558349609375,0.822509765625,-0.40704345703125
1774158612808398600,15.402398681640625,-0.3128662109375,0.7637939453125,-0.4765167236328125
1774158612828392400,15.422392333984375,-0.2901153564453125,1.0355377197265625,-0.4112548828125
1774158612848386300,15.44238623046875,-0.139801025390625,1.22979736328125,-0.2889556884765625
1774158612868380400,15.46238037109375,-0.08709716796875,1.1920318603515625,-0.20037841796875
1774158612888374300,15.482374267578125,0.05743408203125,1.0536346435546875,-0.111114501953125
1774158612908367400,15.502367431640625,-0.1189117431640625,0.9209747314453125,-0.091156005859375
1774158612928361500,15.522361572265625,-0.1387481689453125,0.838134765625,-0.0835723876953125
1774158612948355300,15.542355224609375,-0.0345306396484375,0.7441864013671875,-0.11456298828125
1774158612968349400,15.562349365234375,-0.090484619140625,0.7530670166015625,-0.127593994140625
1774158612988343600,15.582343505859376,-0.027130126953125,0.7302703857421875,-0.105072021484375
1774158613008336400,15.60233642578125,-0.0615234375,0.651275634765625,-0.071441650390625
1774158613028330200,15.622330322265626,-0.0318145751953125,0.5548248291015625,-0.06402587890625
1774158613048324400,15.642324462890626,-0.04583740234375,0.64923095703125,-0.1456756591796875
1774158613068318500,15.662318359375,-0.043365478515625,0.7234039306640625,-0.15472412109375
1774158613088312300,15.682312255859374,0.0198822021484375,0.771697998046875,-0.1753387451171875
1774158613108306400,15.702306396484374,-0.0672454833984375,0.925262451171875,-0.03277587890625
1774158613128299500,15.722299560546874,-0.0226593017578125,1.021240234375,-0.01763916015625
1774158613148293400,15.74229345703125,-0.042999267578125,0.968231201171875,-0.205108642578125
1774158613168287200,15.762287353515624,-0.060699462890625,1.042236328125,-0.2545623779296875
1774158613188281300,15.78228125,-0.0477142333984375,1.16888427734375,-0.2635650634765625
1774158613208275200,15.802275146484375,-0.032745361328125,1.247344970703125,-0.262451171875
1774158613228268300,15.822268310546875,0.1154327392578125,1.257568359375,-0.2742767333984375
1774158613248262400,15.842262451171875,0.0842742919921875,1.305877685546875,-0.1708221435546875
1774158613268256500,15.862256591796875,-0.0182342529296875,1.4558868408203125,-0.0246734619140625
1774158613288250400,15.88225048828125,-0.292510986328125,1.2623443603515625,-0.1456298828125
1774158613308244500,15.902244384765625,-0.2615203857421875,1.2799835205078125,-0.3392333984375
1774158613328238600,15.922238525390625,-0.3999481201171875,1.0661468505859375,-0.245758056640625
1774158613348231700,15.942231689453125,-0.3816375732421875,0.8749542236328125,-0.240386962890625
1774158613368225500,15.9622255859375,-0.338531494140625,0.7881622314453125,-0.1858367919921875
1774158613388219400,15.982219482421876,-0.3316650390625,0.8241424560546875,-0.2015838623046875
1774158613408213500,16.002213623046874,-0.321929931640625,0.9591522216796875,-0.18060302734375
1774158613428207400,16.022207275390624,-0.2421722412109375,1.0723724365234375,-0.1929931640625
1774158613448201500,16.042201416015626,-0.1702728271484375,1.078765869140625,-0.1774749755859375
1774158613468194600,16.062194580078124,-0.084320068359375,0.959259033203125,-0.1812286376953125
1774158613488188400,16.0821884765625,-0.138275146484375,0.89459228515625,-0.2079620361328125
1774158613508182500,16.1021826171875,-0.2530975341796875,0.912750244140625,-0.2071990966796875
1774158613528176600,16.1221767578125,-0.2472991943359375,0.8502349853515625,-0.258392333984375
1774158613548170500,16.14217041015625,-0.0194854736328125,0.7163848876953125,-0.1189727783203125
1774158613568163300,16.162163330078126,0.011932373046875,0.7315673828125,-0.07952880859375
1774158613588157400,16.182157470703125,-0.1055450439453125,0.728057861328125,-0.154876708984375
1774158613608151600,16.202151611328127,0.036590576171875,0.6905975341796875,0.023712158203125
1774158613628145400,16.2221455078125,-0.177825927734375,0.754974365234375,0.0967864990234375
1774158613648139500,16.242139404296875,-0.0602264404296875,0.8511199951171875,0.1024169921875
1774158613668132600,16.262132568359377,-0.0004119873046875,0.915435791015625,0.0526580810546875
1774158613688126500,16.28212646484375,-0.05181884765625,0.959808349609375,-0.060211181640625
1774158613708120600,16.30212060546875,0.003814697265625,0.957366943359375,-0.058563232421875
1774158613728114400,16.322114501953124,-0.060699462890625,0.9997100830078125,-0.0829010009765625
1774158613748108300,16.3421083984375,-0.05859375,1.114654541015625,-0.1287994384765625
1774158613768102400,16.362102294921876,-0.1765594482421875,1.12884521484375,-0.1977081298828125
1774158613788095500,16.382095458984374,-0.1317291259765625,1.0770416259765625,-0.1230621337890625
1774158613808089600,16.402089599609376,-0.102447509765625,0.9828033447265625,-0.0031280517578125
1774158613828083500,16.42208349609375,-0.097503662109375,1.0431976318359375,0.0543060302734375
1774158613848077600,16.44207763671875,-0.0897216796875,1.1790618896484375,-0.066497802734375
1774158613868071700,16.46207177734375,-0.062896728515625,1.2886199951171875,-0.2106781005859375
1774158613888064500,16.482064453125,-0.14031982421875,1.3145904541015625,-0.3245849609375
1774158613908058400,16.502058349609374,-0.2247314453125,1.26312255859375,-0.364959716796875
1774158613928052500,16.522052490234376,-0.2168731689453125,1.1701507568359375,-0.3607940673828125
1774158613948046300,16.54204638671875,-0.268402099609375,0.9397735595703125,-0.413421630859375
1774158613968040400,16.56204052734375,-0.2335968017578125,0.8957672119140625,-0.2596588134765625
1774158613988034600,16.58203466796875,-0.1462554931640625,0.9896240234375,-0.3152008056640625
1774158614008027600,16.602027587890625,-0.09796142578125,1.15594482421875,-0.3225860595703125
1774158614028021500,16.622021484375,-0.04754638671875,1.193756103515625,-0.2434234619140625
1774158614048015400,16.642015380859377,-0.0425567626953125,1.0400848388671875,-0.171142578125
1774158614068009500,16.662009521484375,-0.1677093505859375,0.8971099853515625,-0.06036376953125
1774158614088003300,16.68200341796875,-0.1220855712890625,0.798004150390625,-0.0079193115234375
1774158614107996400,16.701996337890623,-0.07733154296875,0.697479248046875,0.003021240234375
1774158614127990500,16.721990478515625,-0.04833984375,0.6480712890625,0.0162353515625
1774158614147984400,16.741984375,0.000213623046875,0.660614013671875,-0.0170135498046875
1774158614167978500,16.761978515625,0.0778961181640625,0.7080078125,-0.0992889404296875
1774158614187972600,16.78197265625,0.0065460205078125,0.7439727783203125,-0.126739501953125
1774158614207966500,16.801966552734374,0.0363616943359375,0.7923431396484375,-0.1052703857421875
1774158614227959300,16.821959228515624,0.091644287109375,0.8284912109375,-0.1218109130859375
1774158614247953400,16.841953369140626,0.0159149169921875,0.83782958984375,-0.107086181640625
1774158614267947500,16.861947509765624,0.08380126953125,0.845428466796875,-0.09490966796875
1774158614287941600,16.881941650390626,0.17889404296875,0.8705291748046875,-0.1034698486328125
1774158614307935700,16.901935791015624,0.1310882568359375,0.9582977294921875,-0.1583251953125
1774158614327928800,16.9219287109375,0.02838134765625,1.0919036865234375,-0.14642333984375
1774158614347922700,16.941922607421876,-0.0290069580078125,1.2030487060546875,-0.17913818359375
1774158614367916800,16.961916748046875,0.1410064697265625,1.2287445068359375,-0.182373046875
1774158614387910700,16.98191064453125,0.269622802734375,1.2694091796875,-0.09796142578125
1774158614407904500,17.001904541015627,0.386505126953125,1.412017822265625,0.0672760009765625
1774158614427897600,17.021897705078125,-0.1455230712890625,1.6371612548828125,0.1827392578125
1774158614447891700,17.0418916015625,-0.153106689453125,1.409881591796875,-0.0142974853515625
1774158614467885800,17.0618857421875,-0.1967010498046875,1.1323089599609375,-0.258819580078125
1774158614487879700,17.081879638671875,-0.3430023193359375,0.906158447265625,-0.336639404296875
1774158614507873800,17.101873779296874,-0.2595672607421875,0.797576904296875,-0.220245361328125
1774158614527868000,17.121867919921876,-0.2639312744140625,0.8819427490234375,0.02752685546875
1774158614547860700,17.14186083984375,-0.3118896484375,1.0141143798828125,0.1904144287109375
1774158614567854600,17.1618544921875,-0.0844573974609375,1.16741943359375,0.1805877685546875
1774158614587848700,17.1818486328125,-0.0045623779296875,1.1341094970703125,0.0723724365234375
1774158614607842600,17.201842529296876,-0.0780487060546875,0.975189208984375,-0.0247802734375
1774158614627836700,17.221836669921874,0.203826904296875,0.9903564453125,0.0289154052734375
1774158614647829800,17.241829833984376,-0.0028533935546875,0.908233642578125,0.00640869140625
1774158614667823900,17.261823974609374,-0.181488037109375,0.79241943359375,-0.127044677734375
1774158614687817700,17.281817626953124,-0.140380859375,0.6527099609375,-0.1580352783203125
1774158614707811800,17.301811767578126,-0.0439605712890625,0.65155029296875,-0.07470703125
1774158614727805700,17.3218056640625,-0.0722198486328125,0.6577301025390625,0.0175933837890625
1774158614747798800,17.341798828125,-0.0829620361328125,0.729827880859375,0.0431365966796875
1774158614767792600,17.361792724609376,-0.0190277099609375,0.8114166259765625,0.0577545166015625
1774158614787786800,17.381786865234375,-0.0019378662109375,0.8710784912109375,0.0785369873046875
1774158614807780900,17.40178076171875,0.0371246337890625,0.8200225830078125,0.0444793701171875
1774158614827774700,17.421774658203127,-0.0583953857421875,0.8297882080078125,0.041168212890625
1774158614847768800,17.441768798828125,0.0009918212890625,0.90472412109375,0.044586181640625
1774158614867761700,17.46176171875,-0.017425537109375,0.9992828369140625,0.066192626953125
1774158614887755500,17.481755615234373,0.0792083740234375,1.124542236328125,0.04486083984375
1774158614907749600,17.50174951171875,-0.0793609619140625,1.1781463623046875,-0.018035888671875
1774158614927743700,17.52174365234375,0.1318359375,1.21185302734375,-0.0635833740234375
1774158614947737600,17.541737548828124,0.03173828125,1.199737548828125,-0.0251617431640625
1774158614967730700,17.561730712890625,0.0387725830078125,1.2078857421875,0.1020355224609375
1774158614987724800,17.581724853515624,-0.03936767578125,1.242279052734375,0.098876953125
1774158615007719000,17.601718994140626,0.0219573974609375,1.27734375,0.038787841796875
1774158615027712800,17.621712646484376,-0.053802490234375,1.4215850830078125,-0.128875732421875
1774158615047706600,17.64170654296875,-0.12335205078125,1.366790771484375,-0.2888641357421875
1774158615067699700,17.66169970703125,-0.2117462158203125,1.1065216064453125,-0.27569580078125
1774158615087693600,17.681693603515626,-0.15185546875,0.899505615234375,-0.204010009765625
1774158615107687700,17.701687744140624,-0.2147064208984375,0.8941192626953125,-0.1919403076171875
1774158615127681800,17.721681884765626,-0.3784027099609375,1.111114501953125,-0.3417510986328125
1774158615147675600,17.741675537109376,-0.506866455078125,1.183868408203125,-0.5179595947265625
1774158615167669800,17.761669677734375,-0.445068359375,1.077423095703125,-0.4043121337890625
1774158615187662800,17.781662841796877,-0.390716552734375,1.03497314453125,-0.22564697265625
1774158615207656700,17.80165673828125,-0.2259063720703125,0.98443603515625,-0.08758544921875
1774158615227650600,17.821650634765625,1.3627166748046875,1.00323486328125,0.2751922607421875
1774158615247644700,17.841644775390623,-0.396087646484375,0.6804656982421875,0.139739990234375
1774158615267638800,17.861638671875,0.0011138916015625,0.7453155517578125,0.0975189208984375
1774158615287632000,17.8816318359375,0.28424072265625,0.7575836181640625,0.0141448974609375
1774158615307626000,17.9016259765625,0.27862548828125,0.812042236328125,-0.0348663330078125
1774158615327620000,17.9216201171875,-0.358856201171875,0.5629119873046875,-0.12017822265625
1774158615347614000,17.941614013671874,-0.140960693359375,0.6568450927734375,-0.1331634521484375
1774158615367608000,17.961608154296876,0.0409088134765625,0.8079833984375,-0.0648651123046875
1774158615387601000,17.981600830078126,0.1421661376953125,0.80718994140625,-0.018951416015625
1774158615407595000,18.001594970703124,0.2817230224609375,0.8170166015625,-0.0873260498046875
1774158615427588900,18.0215888671875,0.25396728515625,0.8526153564453125,-0.1016387939453125
1774158615447583000,18.0415830078125,0.0468292236328125,0.9354705810546875,-0.022918701171875
1774158615467577000,18.0615771484375,-0.0021820068359375,1.0219879150390625,-0.039337158203125
1774158615487571000,18.081571044921876,0.040069580078125,1.125701904296875,-0.10693359375
1774158615507564000,18.10156396484375,-0.01885986328125,1.2140350341796875,-0.1465301513671875
1774158615527558100,18.12155810546875,0.0350341796875,1.2637481689453125,-0.1735076904296875
1774158615547552000,18.141552001953126,0.3082733154296875,1.2933197021484375,-0.119140625
1774158615567546000,18.161546142578125,0.1581573486328125,1.3707733154296875,0.018768310546875
1774158615587540000,18.1815400390625,-0.0137481689453125,1.56243896484375,0.0341339111328125
1774158615607533000,18.201532958984377,-0.2082366943359375,1.5471038818359375,-0.1445465087890625
1774158615627527000,18.22152685546875,-0.3369598388671875,1.253326416015625,-0.246978759765625
1774158615647521000,18.24152099609375,-0.3107757568359375,0.9542236328125,-0.08038330078125
1774158615667515100,18.26151513671875,-0.2183990478515625,0.8349761962890625,0.0731658935546875
1774158615687509000,18.281509033203125,-0.20184326171875,0.8709564208984375,0.0644073486328125
1774158615707502000,18.301502197265624,-0.1422576904296875,1.0211334228515625,0.022369384765625
1774158615727496000,18.321495849609374,-0.093475341796875,1.102020263671875,-0.0096282958984375
1774158615747490000,18.341489990234376,-0.13623046875,1.116790771484375,-0.0168304443359375
1774158615767484000,18.36148388671875,0.012664794921875,1.0750579833984375,0.0415496826171875
1774158615787478000,18.38147802734375,-0.1018524169921875,0.9784698486328125,0.0545196533203125
1774158615807471000,18.40147119140625,0.007659912109375,0.8712921142578125,0.1128997802734375
1774158615827465000,18.42146484375,-0.0410003662109375,0.837921142578125,0.0082244873046875
1774158615847459000,18.441458984375,-0.0445404052734375,0.7646636962890625,-0.0052947998046875
1774158615867453200,18.461453125,-0.035308837890625,0.7096405029296875,-0.006134033203125
1774158615887447000,18.481447021484374,-0.0600433349609375,0.6463470458984375,0.0009918212890625
1774158615907439900,18.50143994140625,-0.0430908203125,0.6278228759765625,0.0374298095703125
1774158615927434000,18.52143408203125,-0.03216552734375,0.620025634765625,0.1035003662109375
1774158615947428000,18.541427978515625,0.07049560546875,0.6704559326171875,0.1296844482421875
1774158615967422000,18.561421875,0.0884552001953125,0.7493896484375,0.1586761474609375
1774158615987416000,18.581416015625,-0.041961669921875,0.855621337890625,0.1320648193359375
1774158616007409200,18.6014091796875,0.1137542724609375,0.8538818359375,-0.057891845703125
1774158616027403000,18.621403076171877,0.0109100341796875,1.0330352783203125,-0.094635009765625
1774158616047396900,18.64139697265625,-0.117431640625,1.1777191162109375,0.0256195068359375
1774158616067391000,18.661390869140625,-0.1047821044921875,1.1837310791015625,0.01129150390625
1774158616087384800,18.681384765625,-0.0709381103515625,1.1454925537109375,-0.0099639892578125
1774158616107379000,18.70137890625,0.0105743408203125,1.243927001953125,0.0009307861328125
1774158616127372000,18.7213720703125,0.090576171875,1.2511138916015625,0.00433349609375
1774158616147366100,18.7413662109375,0.0673065185546875,1.2649688720703125,0.08465576171875
1774158616167360000,18.761360107421876,-0.0599822998046875,1.3567657470703125,0.093414306640625
1774158616187354000,18.78135400390625,-0.0874786376953125,1.4256744384765625,-0.1673736572265625
1774158616207348200,18.80134814453125,-0.158050537109375,1.3215484619140625,-0.1076507568359375
1774158616227341000,18.821341064453126,-0.380035400390625,1.1899871826171875,0.0057220458984375
1774158616247335000,18.8413349609375,-0.3494873046875,0.996490478515625,-0.009796142578125
1774158616267329000,18.8613291015625,-0.222015380859375,0.8626556396484375,-0.1194305419921875
1774158616287323000,18.881322998046876,-0.1844482421875,0.8778533935546875,-0.1684112548828125
1774158616307317200,18.901317138671875,-0.1885833740234375,1.07354736328125,-0.1312255859375
1774158616327310300,18.921310302734376,-0.1435394287109375,1.156036376953125,-0.06182861328125
1774158616347304400,18.941304443359375,-0.1515960693359375,1.16021728515625,0.0337982177734375
1774158616367298300,18.96129833984375,-0.0288848876953125,1.093048095703125,0.125518798828125
1774158616387292400,18.98129248046875,-0.0490875244140625,0.9626312255859375,0.194671630859375
1774158616407286500,19.00128662109375,-0.08795166015625,0.80328369140625,0.1632843017578125
1774158616427279400,19.021279296875,-0.0034942626953125,0.7320556640625,0.1388092041015625
1774158616447273200,19.041273193359373,-0.0375213623046875,0.71124267578125,0.105377197265625
1774158616467267300,19.061267333984375,0.030029296875,0.6858673095703125,0.1006622314453125
1774158616487261200,19.08126123046875,0.0372467041015625,0.6492462158203125,0.103271484375
1774158616507255300,19.10125537109375,0.0792236328125,0.6277313232421875,0.1268768310546875
1774158616527248400,19.121248291015625,0.077972412109375,0.7000274658203125,0.1769256591796875
1774158616547242500,19.141242431640624,0.105010986328125,0.708984375,0.130950927734375
1774158616567236400,19.161236328125,0.153289794921875,0.747833251953125,0.075927734375
1774158616587230500,19.18123046875,0.1378631591796875,0.7979278564453125,0.0764007568359375
1774158616607224600,19.201224609375,0.0834503173828125,0.869720458984375,0.0981597900390625
1774158616627217400,19.221217529296876,0.0206146240234375,0.9761962890625,0.0848236083984375
1774158616647211300,19.241211181640626,-0.0002899169921875,1.0727996826171875,0.05743408203125
1774158616667205400,19.261205322265624,-0.0131683349609375,1.0970611572265625,0.0849609375
1774158616687199200,19.28119921875,-0.03204345703125,1.1475982666015625,0.1248779296875
1774158616707193300,19.301193359375,0.024078369140625,1.2730560302734375,0.122772216796875
1774158616727186400,19.3211865234375,0.16845703125,1.3610687255859375,0.13665771484375
1774158616747180500,19.3411806640625,0.181488037109375,1.35223388671875,0.20245361328125
1774158616767174100,19.361174072265626,0.0756378173828125,1.3170013427734375,0.231536865234375
1774158616787168300,19.381168212890625,-0.042755126953125,1.3268585205078125,0.144287109375
1774158616807162400,19.401162353515623,-0.1906890869140625,1.2786407470703125,0.047271728515625
1774158616827155500,19.421155517578125,-0.2820587158203125,1.1495361328125,0.005340576171875
1774158616847149300,19.4411494140625,-0.3414154052734375,0.9689788818359375,-0.031005859375
1774158616867143400,19.461143310546873,-0.3252410888671875,0.8889007568359375,-0.0838623046875
1774158616887137500,19.481137451171875,-0.165802001953125,0.9430999755859375,-0.0096588134765625
1774158616907131400,19.50113134765625,-0.2585296630859375,1.08868408203125,0.0891265869140625
1774158616927124200,19.521124267578124,0.0964202880859375,0.9904022216796875,0.2340850830078125
1774158616947118300,19.541118408203126,-0.11688232421875,1.1015777587890625,0.290191650390625
1774158616967112200,19.5611123046875,-0.1253814697265625,0.9808197021484375,0.134246826171875
1774158616987106300,19.581106201171874,-0.104644775390625,0.88299560546875,0.091339111328125
1774158617007100400,19.601100341796876,-0.118896484375,0.8286285400390625,0.105255126953125
1774158617027093500,19.621093505859374,-0.060638427734375,0.7126617431640625,0.0583343505859375
1774158617047087400,19.64108740234375,-0.045135498046875,0.6674957275390625,0.014404296875
1774158617067081500,19.66108154296875,-0.083831787109375,0.68060302734375,0.0340728759765625
1774158617087075300,19.681075439453124,-0.069793701171875,0.6814727783203125,0.0493927001953125
1774158617107069200,19.701069091796874,-0.07318115234375,0.683837890625,0.0787811279296875
1774158617127062300,19.721062255859376,-0.0868682861328125,0.810577392578125,0.100433349609375
1774158617147056400,19.741056396484375,-0.0864105224609375,0.8675079345703125,0.0999755859375
1774158617167050200,19.76105029296875,-0.0958709716796875,0.8798980712890625,0.1335601806640625
1774158617187044400,19.78104443359375,-0.0470733642578125,0.8919219970703125,0.164215087890625
1774158617207038500,19.80103857421875,-0.0495758056640625,0.90423583984375,0.098297119140625
1774158617227031300,19.82103125,-0.0444183349609375,1.04315185546875,0.1026763916015625
1774158617247025200,19.841025146484377,-0.069427490234375,1.0937042236328125,0.20526123046875
1774158617267019300,19.861019287109375,-0.0553131103515625,1.127593994140625,0.134063720703125
1774158617287013400,19.881013427734374,-0.111480712890625,1.1741790771484375,0.0840301513671875
1774158617307007000,19.901007080078124,-0.105560302734375,1.195587158203125,0.07623291015625
1774158617327000000,19.921,-0.0662384033203125,1.2452850341796875,0.079498291015625
1774158617346994200,19.940994140625,-0.0281219482421875,1.2708740234375,0.1374664306640625
1774158617366988300,19.96098828125,-0.012542724609375,1.266815185546875,0.0957489013671875
1774158617386982100,19.980982177734376,-0.1746673583984375,1.315185546875,-0.0051727294921875
1774158617406976000,20.00097607421875,-0.255859375,1.2238616943359375,-0.042022705078125
1774158617426969000,20.020968994140624,-0.359161376953125,1.0117950439453125,-0.062957763671875
1774158617446963000,20.040962890625,-0.33807373046875,0.877410888671875,-0.115814208984375
1774158617466957000,20.06095703125,-0.2776336669921875,0.881805419921875,-0.1911163330078125
1774158617486951200,20.080951171875,-0.2731170654296875,0.9779815673828125,-0.2007293701171875
1774158617506945000,20.100945068359376,-0.315460205078125,1.138427734375,-0.140655517578125
1774158617526938000,20.120938232421874,-0.254669189453125,1.193267822265625,-0.1507720947265625
1774158617546932000,20.140931884765624,-0.2067413330078125,1.172637939453125,-0.162200927734375
1774158617566926000,20.160926025390626,-0.1343231201171875,1.07568359375,-0.0845489501953125
1774158617586920000,20.180919921875,-0.111968994140625,0.9204559326171875,0.0043487548828125
1774158617606914000,20.2009140625,-0.17578125,0.7911529541015625,0.014556884765625
1774158617626907100,20.2209072265625,-0.1395111083984375,0.7523040771484375,0.0377197265625
1774158617646901200,20.2409013671875,-0.0814056396484375,0.70233154296875,0.07781982421875
1774158617666895000,20.26089501953125,-0.0329437255859375,0.6710357666015625,0.09002685546875
1774158617686889200,20.28088916015625,-0.0475006103515625,0.6588287353515625,0.0861053466796875
1774158617706883000,20.300883056640625,-0.067138671875,0.7048797607421875,0.0814056396484375
1774158617726876000,20.3208759765625,-0.061981201171875,0.7701416015625,0.087066650390625
1774158617746870000,20.3408701171875,-0.035858154296875,0.7566680908203125,0.0068206787109375
1774158617766864100,20.360864013671875,-0.029083251953125,0.7710723876953125,-0.03533935546875
1774158617786858000,20.38085791015625,-0.043121337890625,0.8380279541015625,-0.0702056884765625
1774158617806852000,20.40085205078125,-0.0052032470703125,0.8851776123046875,-0.0301971435546875
1774158617826845200,20.42084521484375,-0.0264434814453125,0.9675140380859375,0.040252685546875
1774158617846839300,20.44083935546875,-0.06793212890625,1.081298828125,0.04034423828125
1774158617866833200,20.460833251953126,-0.10308837890625,1.14581298828125,0.0091400146484375
1774158617886827000,20.480826904296876,-0.1161346435546875,1.2632293701171875,-0.0010986328125
1774158617906821000,20.500821044921874,-0.044952392578125,1.3664093017578125,-0.01953125
1774158617926814000,20.52081396484375,0.0570068359375,1.5013885498046875,0.0876007080078125
1774158617946808000,20.54080810546875,-0.1846466064453125,1.6260986328125,0.3233642578125
1774158617966802200,20.56080224609375,-0.311920166015625,1.380401611328125,0.261260986328125
1774158617986796000,20.580796142578127,-0.477264404296875,1.3118133544921875,0.01898193359375
1774158618006789000,20.6007890625,-0.3979949951171875,0.9914398193359375,-0.0554046630859375
1774158618026783000,20.620782958984375,-0.4435577392578125,0.822906494140625,-0.0344390869140625
1774158618046777000,20.640777099609377,-0.453887939453125,0.8677215576171875,-0.101043701171875
1774158618066771000,20.66077099609375,-0.36187744140625,0.8909149169921875,-0.0793304443359375
1774158618086765000,20.68076513671875,-0.409881591796875,1.0800628662109375,0.0135345458984375
1774158618106758100,20.700758056640623,-0.2424468994140625,1.0489044189453125,0.070465087890625
1774158618126752300,20.720752197265625,-0.0995330810546875,1.0038909912109375,0.06597900390625
1774158618146746000,20.74074609375,-0.0323944091796875,0.897216796875,0.0108795166015625
1774158618166740200,20.760740234375,-0.12841796875,0.8234100341796875,0.003753662109375
1774158618186734000,20.780734130859376,-0.2170867919921875,0.8269500732421875,0.008575439453125
1774158618206727000,20.800726806640625,-0.103424072265625,0.7320709228515625,-0.009857177734375
1774158618226721000,20.820720947265624,-0.1184539794921875,0.6668853759765625,0.028656005859375
1774158618246715100,20.840715087890626,-0.1060028076171875,0.6861572265625,0.0134429931640625
1774158618266709000,20.860708984375,-0.118804931640625,0.6786956787109375,0.03887939453125
1774158618286703000,20.880703125,-0.1158294677734375,0.7588348388671875,0.0397186279296875
1774158618306696000,20.900696044921876,-0.12860107421875,0.7950897216796875,0.0570831298828125
1774158618326690000,20.92068994140625,-0.0672149658203125,0.8031768798828125,0.0732421875
1774158618346683600,20.94068359375,-0.0189971923828125,0.75701904296875,0.1209716796875
1774158618366677800,20.960677734375,-0.2696533203125,1.08062744140625,0.112335205078125
1774158618386671900,20.980671875,0.019561767578125,0.8651275634765625,0.159271240234375
1774158618406665000,21.0006650390625,-0.1394195556640625,1.00006103515625,0.093292236328125
1774158618426658800,21.020658935546876,-0.02801513671875,1.027496337890625,0.086334228515625
1774158618446653000,21.04065283203125,-0.1782379150390625,1.2796783447265625,0.0076446533203125
1774158618466646800,21.060646728515625,-0.11669921875,1.205108642578125,0.0668182373046875
1774158618486641000,21.080640869140623,-0.1462249755859375,1.2588348388671875,0.1243438720703125
1774158618506633700,21.1006337890625,-0.0071258544921875,1.218841552734375,0.1382598876953125
1774158618526627800,21.1206279296875,-0.113037109375,1.3797607421875,0.0832672119140625
1774158618546621700,21.14062158203125,-0.2173004150390625,1.280609130859375,0.0554351806640625
1774158618566615800,21.16061572265625,-0.4183349609375,1.1990203857421875,-0.0464630126953125
1774158618586610000,21.18060986328125,-0.510284423828125,1.2826690673828125,-0.1518096923828125
1774158618606603000,21.20060302734375,-0.119293212890625,0.8918609619140625,-0.223175048828125
1774158618626596900,21.220596923828126,-0.16925048828125,0.989959716796875,-0.2616424560546875
1774158618646591000,21.240591064453124,-0.172027587890625,1.0217437744140625,-0.2287445068359375
1774158618666584800,21.260584716796874,-0.2262115478515625,1.0623931884765625,-0.2019500732421875
1774158618686578000,21.280577880859376,-0.1955718994140625,1.074493408203125,-0.26153564453125
1774158618706571800,21.30057177734375,-0.115325927734375,1.082000732421875,-0.21136474609375
1774158618726566000,21.32056591796875,-0.105804443359375,1.0231170654296875,-0.107757568359375
1774158618746559700,21.340559814453126,-0.16058349609375,0.941558837890625,-0.0102081298828125
1774158618766553900,21.360553955078124,-0.137115478515625,0.8571624755859375,0.0540313720703125
1774158618786547000,21.380546875,-0.0872802734375,0.7554779052734375,0.1014404296875
1774158618806540800,21.400540771484376,-0.0195770263671875,0.6525726318359375,0.10650634765625
1774158618826534700,21.42053466796875,-0.0025482177734375,0.6049957275390625,0.0871124267578125
1774158618846528800,21.44052880859375,-0.004486083984375,0.6395416259765625,0.0595855712890625
1774158618866523000,21.46052294921875,-0.0266571044921875,0.6991729736328125,0.034912109375
1774158618886516000,21.480515869140625,0.0119781494140625,0.72845458984375,0.0013885498046875
1774158618906509800,21.500509765625,0.0548553466796875,0.779266357421875,-0.032440185546875
1774158618926504000,21.52050390625,0.0363006591796875,0.811431884765625,-0.0373687744140625
1774158618946497800,21.540497802734375,0.0150604248046875,0.834930419921875,0.0013580322265625
1774158618966492000,21.560491943359374,0.0255126953125,0.909332275390625,0.052490234375
1774158618986484700,21.580484619140623,0.054046630859375,1.0102691650390625,0.0847015380859375
1774158619006478800,21.600478759765625,-0.02880859375,1.1121368408203125,0.0858306884765625
1774158619026472700,21.62047265625,-0.0821685791015625,1.2060089111328125,0.03192138671875
1774158619046466800,21.640466796875,-0.0036468505859375,1.2946014404296875,-0.04345703125
1774158619066461000,21.6604609375,0.128936767578125,1.34564208984375,-0.082916259765625
1774158619086454000,21.6804541015625,0.181793212890625,1.383544921875,0.0728302001953125
1774158619106448000,21.70044775390625,-0.01910400390625,1.4569854736328125,0.3311004638671875
1774158619126442000,21.72044189453125,-0.1378173828125,1.4134521484375,0.2855987548828125
1774158619146435800,21.740435791015624,-0.2589111328125,1.2408905029296875,-0.004150390625
1774158619166429000,21.760428955078126,-0.340576171875,0.9645233154296875,-0.23565673828125
1774158619186422800,21.7804228515625,-0.4050140380859375,0.75531005859375,-0.247406005859375
1774158619206417000,21.8004169921875,-0.3609466552734375,0.8477630615234375,-0.0577545166015625
1774158619226410800,21.82041064453125,-0.33880615234375,1.02880859375,0.0848541259765625
1774158619246404900,21.84040478515625,-0.2693023681640625,1.1649322509765625,0.1584320068359375
1774158619266398000,21.86039794921875,-0.1617889404296875,1.109527587890625,0.19781494140625
1774158619286391800,21.880391845703127,-0.0662384033203125,1.0222625732421875,0.178466796875
1774158619306386200,21.90038623046875,-0.074615478515625,0.999725341796875,0.053070068359375
1774158619326380300,21.92038037109375,-0.1104736328125,0.947296142578125,-0.05047607421875
1774158619346374100,21.9403740234375,-0.1439361572265625,0.874847412109375,-0.086517333984375
1774158619366367000,21.960366943359375,-0.11724853515625,0.8215484619140625,-0.0489654541015625
1774158619386361000,21.980361083984373,-0.0642547607421875,0.759674072265625,0.0145111083984375
1774158619406355200,22.000355224609375,-0.0220947265625,0.7064056396484375,0.0509185791015625
1774158619426349000,22.02034912109375,-0.0324554443359375,0.67803955078125,0.0576171875
1774158619446343200,22.04034326171875,-0.0826873779296875,0.69268798828125,0.0615997314453125
1774158619466336300,22.060336181640626,-0.091766357421875,0.711090087890625,0.0659942626953125
1774158619486330000,22.080330078125,-0.0871429443359375,0.752410888671875,0.06988525390625
1774158619506324000,22.100323974609374,-0.04296875,0.811431884765625,0.1020050048828125
1774158619526318000,22.120318115234376,-0.002471923828125,0.864013671875,0.115875244140625
1774158619546312200,22.140312255859374,-0.0520782470703125,0.9311676025390625,0.105133056640625
1774158619566305300,22.16030517578125,-0.081146240234375,0.9892730712890625,0.08502197265625
1774158619586299100,22.180299072265626,-0.070526123046875,1.0636444091796875,0.0728759765625
1774158619606293200,22.200293212890625,-0.1191253662109375,1.163604736328125,0.05712890625
1774158619626287000,22.220287109375,-0.11004638671875,1.2110595703125,0.0696258544921875
1774158619646281200,22.24028125,-0.0347900390625,1.2843475341796875,0.17181396484375
1774158619666274000,22.260274169921875,0.106170654296875,1.33648681640625,0.25238037109375
1774158619686268200,22.28026806640625,-0.001617431640625,1.3551177978515625,0.16455078125
1774158619706262000,22.300261962890627,-0.09771728515625,1.4202728271484375,-0.007659912109375
1774158619726256000,22.320256103515625,-0.24383544921875,1.3183135986328125,-0.164794921875
1774158619746249200,22.340249267578123,-0.39111328125,1.0325775146484375,-0.202880859375
1774158619766243300,22.360243408203125,-0.3413238525390625,0.8851165771484375,-0.1846160888671875
1774158619786237200,22.3802373046875,-0.2785491943359375,0.8833160400390625,-0.221649169921875
1774158619806231000,22.40023095703125,-0.2560882568359375,1.0385284423828125,-0.2632293701171875
1774158619826225200,22.42022509765625,-0.187744140625,1.23077392578125,-0.2678985595703125
1774158619846218000,22.440218017578125,-0.1260223388671875,1.2174835205078125,-0.1464691162109375
1774158619866212000,22.460212158203124,-0.1108856201171875,1.055206298828125,-0.0432586669921875
1774158619886206200,22.480206298828126,-0.1215667724609375,0.9986724853515625,-0.017303466796875
1774158619906200000,22.500199951171876,-0.1247711181640625,0.906585693359375,0.0290985107421875
1774158619926194200,22.520194091796874,-0.117584228515625,0.78192138671875,0.0576629638671875
1774158619946187000,22.54018701171875,-0.0945587158203125,0.6690521240234375,0.069580078125
1774158619966181000,22.56018115234375,-0.050079345703125,0.6177978515625,0.086334228515625
1774158619986175000,22.580175048828124,-0.0207672119140625,0.610137939453125,0.119598388671875
1774158620006169000,22.600169189453126,0.0166473388671875,0.627838134765625,0.10284423828125
1774158620026163200,22.6201630859375,0.0305023193359375,0.7154083251953125,0.0699462890625
1774158620046156300,22.64015625,0.072021484375,0.7879180908203125,0.052032470703125
1774158620066150100,22.660150146484376,0.0588836669921875,0.8117828369140625,-0.0184173583984375
1774158620086144300,22.680144287109375,0.003021240234375,0.831024169921875,-0.0980224609375
1774158620106138000,22.70013818359375,0.0281829833984375,0.8882904052734375,-0.08502197265625
1774158620126132200,22.72013232421875,0.037445068359375,0.9542999267578125,-0.0149078369140625
1774158620146125000,22.740125,0.0065460205078125,1.0721588134765625,0.033966064453125
1774158620166119200,22.760119140625,-0.07098388671875,1.1409912109375,0.0558013916015625
1774158620186113000,22.780113037109373,-0.07855224609375,1.1686248779296875,0.022918701171875
1774158620206107100,22.800107177734375,-0.06964111328125,1.2071533203125,-0.036041259765625
1774158620226100200,22.820100341796874,0.03179931640625,1.35308837890625,-0.002593994140625
1774158620246094300,22.84009423828125,0.150177001953125,1.4538116455078125,0.1590118408203125
1774158620266088200,22.860088134765626,0.0139923095703125,1.4742431640625,0.321044921875
1774158620286082000,22.88008203125,-0.0725250244140625,1.4526824951171875,0.289825439453125
1774158620306076200,22.900076171875,-0.265777587890625,1.3454132080078125,-0.007568359375
1774158620326069000,22.920069091796876,-0.318023681640625,1.1400909423828125,-0.2167510986328125
1774158620346063000,22.94006298828125,-0.3682708740234375,0.91339111328125,-0.2071380615234375
1774158620366057200,22.96005712890625,-0.3898773193359375,0.7603759765625,-0.036041259765625
1774158620386051000,22.980051025390626,-0.36199951171875,0.781524658203125,0.0388336181640625
1774158620406045200,23.000045166015624,-0.3160552978515625,0.9394683837890625,0.0673065185546875
1774158620426038000,23.0200380859375,-0.0935516357421875,1.069366455078125,0.0883941650390625
1774158620446032100,23.0400322265625,-0.131256103515625,1.0610809326171875,-0.057830810546875
1774158620466026000,23.06002587890625,-0.1467437744140625,0.935394287109375,-0.02520751953125
1774158620486020000,23.08002001953125,-0.1484832763671875,0.9015350341796875,0.032745361328125
1774158620506014200,23.10001416015625,-0.14776611328125,0.81695556640625,-0.001251220703125
1774158620526007300,23.12000732421875,-0.131072998046875,0.7624359130859375,-0.04718017578125
1774158620546001200,23.140001220703127,-0.0749664306640625,0.745391845703125,-0.02166748046875
1774158620565995300,23.159995361328125,-0.0701904296875,0.71136474609375,-0.0047454833984375
1774158620585989000,23.179989013671875,-0.0643310546875,0.761932373046875,0.0275726318359375
1774158620605983000,23.19998291015625,-0.0063018798828125,0.6273345947265625,0.19287109375
1774158620625976000,23.21997607421875,-0.135955810546875,0.7441864013671875,-0.0030364990234375
1774158620645970200,23.23997021484375,-0.0500335693359375,0.82080078125,-0.0321807861328125
1774158620665964000,23.259964111328124,-0.1183319091796875,0.853729248046875,-0.0739898681640625
1774158620685958100,23.279958251953126,-0.11297607421875,0.8823699951171875,-0.0388031005859375
1774158620705952300,23.2999521484375,-0.06085205078125,0.991851806640625,0.079620361328125
1774158620725945300,23.3199453125,-0.0187835693359375,1.06561279296875,0.1515350341796875
1774158620745939200,23.339939208984376,-0.0717926025390625,1.03302001953125,0.0122833251953125
1774158620765933000,23.35993310546875,-0.054046630859375,1.110076904296875,0.1653900146484375
1774158620785927200,23.37992724609375,-0.0747222900390625,1.2474212646484375,0.083770751953125
1774158620805920000,23.399919921875,-0.1920318603515625,1.1084747314453125,-0.0955352783203125
1774158620825914000,23.4199140625,-0.1770782470703125,1.3275146484375,0.1637725830078125
1774158620845908200,23.439908203125,-0.1580352783203125,1.29931640625,0.1924285888671875
1774158620865902000,23.459902099609376,-0.098785400390625,1.3320770263671875,0.0159912109375
1774158620885896200,23.479896240234375,-0.0478668212890625,1.371673583984375,-0.018341064453125
1774158620905889000,23.499888916015625,-0.2259368896484375,1.311431884765625,-0.0789794921875
1774158620925883100,23.519883056640627,-0.33197021484375,1.0722198486328125,-0.199066162109375
1774158620945877000,23.539876953125,-0.26519775390625,0.903289794921875,-0.3316650390625
1774158620965871000,23.55987109375,-0.24713134765625,0.782379150390625,-0.347442626953125
1774158620985865200,23.579865234375,-0.3015289306640625,0.8730926513671875,-0.3641357421875
1774158621005858300,23.5998583984375,-0.2233428955078125,1.110443115234375,-0.366668701171875
1774158621025852200,23.61985205078125,-0.107177734375,1.216583251953125,-0.2797393798828125
1774158621045846300,23.63984619140625,-0.1410675048828125,1.0764617919921875,-0.087005615234375
1774158621065840000,23.659840087890625,-0.1527252197265625,0.960693359375,-0.0189361572265625
1774158621085834000,23.679833984375,-0.057952880859375,0.8592071533203125,0.0573577880859375
1774158621105827000,23.6998271484375,-0.09283447265625,0.7591400146484375,0.1093292236328125
1774158621125821200,23.7198212890625,-0.096527099609375,0.75323486328125,0.170501708984375
1774158621145815000,23.73981494140625,-0.097412109375,0.6830902099609375,0.1080322265625
1774158621165809200,23.75980908203125,-0.0848846435546875,0.6885223388671875,-0.0689544677734375
1774158621185803300,23.77980322265625,-0.09429931640625,0.7014007568359375,-0.1539306640625
1774158621205796400,23.79979638671875,-0.0264892578125,0.7400054931640625,-0.0622406005859375
1774158621225790000,23.8197900390625,-0.008453369140625,0.8043670654296875,0.0108184814453125
1774158621245784000,23.8397841796875,-0.008819580078125,0.85687255859375,0.040496826171875
1774158621265778200,23.859778076171875,0.01873779296875,0.8649139404296875,0.0672149658203125
1774158621285772000,23.87977197265625,0.008941650390625,0.9312744140625,0.073455810546875
1774158621305765000,23.89976513671875,0.010009765625,0.9589996337890625,0.050018310546875
1774158621325759200,23.91975927734375,-0.021392822265625,0.97308349609375,0.0165863037109375
1774158621345753000,23.939753173828127,-0.0564117431640625,1.0059051513671875,0.04376220703125
1774158621365747200,23.959747314453125,-0.1334991455078125,1.1017303466796875,0.0196990966796875
1774158621385741000,23.979740966796875,-0.09039306640625,1.266998291015625,-0.062225341796875
1774158621405734100,23.999734130859373,0.11346435546875,1.4050750732421875,-0.0169525146484375
1774158621425728000,24.01972802734375,0.001251220703125,1.4236907958984375,0.200439453125
1774158621445722000,24.03972216796875,-0.2745819091796875,1.443359375,0.251922607421875
1774158621465716200,24.05971630859375,-0.2402801513671875,1.4273834228515625,0.152099609375
1774158621485710000,24.0797099609375,-0.264678955078125,1.200347900390625,-0.060638427734375
1774158621505703200,24.099703125,-0.3526153564453125,0.9252166748046875,-0.11968994140625
1774158621525697000,24.119697021484374,-0.2733917236328125,0.8414459228515625,-0.0722503662109375
1774158621545691100,24.139691162109376,-0.24591064453125,0.7984771728515625,-0.08599853515625
1774158621565685000,24.15968505859375,-0.361175537109375,0.9900054931640625,-0.0978546142578125
1774158621585678000,24.179677978515624,-0.3889923095703125,1.1339874267578125,-0.0022735595703125
1774158621605672200,24.199672119140626,-0.25994873046875,1.1646881103515625,0.0683441162109375
1774158621625666000,24.219666015625,-0.050445556640625,1.0540618896484375,0.01055908203125
1774158621645660200,24.23966015625,-0.0963592529296875,0.9465484619140625,0.07470703125
1774158621665654300,24.259654296875,-0.1257476806640625,0.82623291015625,0.061004638671875
1774158621685647000,24.279647216796874,-0.06939697265625,0.7561492919921875,0.031036376953125
1774158621705641000,24.299640869140624,-0.103759765625,0.719573974609375,0.026153564453125
1774158621725635000,24.319635009765626,-0.098114013671875,0.686279296875,0.01727294921875
1774158621745629200,24.339629150390625,-0.0959320068359375,0.6760406494140625,0.01763916015625
1774158621765623000,24.359623046875,-0.12738037109375,0.6867828369140625,-0.00726318359375
1774158621785616100,24.3796162109375,-0.13739013671875,0.7044525146484375,0.012359619140625
1774158621805610200,24.3996103515625,-0.1304473876953125,0.7422332763671875,0.04461669921875
1774158621825604000,24.41960400390625,-0.1034088134765625,0.79632568359375,0.0993804931640625
1774158621845598000,24.439597900390623,-0.0868988037109375,0.842071533203125,0.138885498046875
1774158621865592000,24.459592041015625,-0.0751495361328125,0.9165496826171875,0.110137939453125
1774158621885585200,24.479585205078124,-0.0988616943359375,0.9516754150390625,0.1015625
1774158621905579000,24.4995791015625,-0.1183929443359375,0.987518310546875,0.097991943359375
1774158621925573000,24.519572998046876,-0.1438751220703125,1.0690155029296875,0.075927734375
1774158621945567200,24.539567138671874,-0.16351318359375,1.1740264892578125,0.039764404296875
1774158621965561000,24.55956103515625,-0.187286376953125,1.242584228515625,0.0545501708984375
1774158621985554000,24.579553955078126,-0.1408538818359375,1.292999267578125,0.1295013427734375
1774158622005548000,24.599548095703124,-0.1055450439453125,1.3595428466796875,0.1513214111328125
1774158622025542100,24.619542236328126,-0.14263916015625,1.4819183349609375,0.0855560302734375
1774158622045536000,24.639535888671876,-0.1681060791015625,1.4425048828125,-0.0377044677734375
1774158622065529000,24.659529052734374,-0.252838134765625,1.3124542236328125,-0.1232147216796875
1774158622085523200,24.679523193359376,-0.30096435546875,1.1031494140625,-0.115814208984375
1774158622105517000,24.69951708984375,-0.32098388671875,0.8914947509765625,-0.219482421875
1774158622125511200,24.71951123046875,-0.3205413818359375,0.8231201171875,-0.4114990234375
1774158622145505300,24.73950537109375,-0.2739410400390625,0.9920806884765625,-0.5081634521484375
1774158622165498000,24.759498046875,-0.1133880615234375,1.1862945556640625,-0.4451751708984375
1774158622185492000,24.779491943359375,-0.1762237548828125,1.197357177734375,-0.0468292236328125
1774158622205486000,24.799486083984377,-0.151641845703125,1.0008087158203125,0.1204376220703125
1774158622225480200,24.819480224609375,-0.169036865234375,0.87762451171875,0.0034942626953125
1774158622245474000,24.83947412109375,-0.2019500732421875,0.81097412109375,-0.06158447265625
1774158622265467100,24.859467041015623,-0.1248931884765625,0.6935882568359375,-0.0255889892578125
1774158622285461200,24.879461181640625,-0.065032958984375,0.6490631103515625,0.0127716064453125
1774158622305455000,24.899455078125,-0.0889434814453125,0.6494293212890625,0.016357421875
1774158622325449000,24.919448974609374,-0.0654449462890625,0.6398162841796875,0.0215301513671875
1774158622345443000,24.939443115234376,-0.0445404052734375,0.6437530517578125,0.035980224609375
1774158622365436200,24.959436279296874,-0.0532073974609375,0.7088165283203125,0.035003662109375
1774158622385430000,24.979429931640624,-0.02093505859375,0.80108642578125,0.0426788330078125
1774158622405424000,24.999424072265626,-0.0060577392578125,0.8336944580078125,0.02532958984375
1774158622425418200,25.019418212890624,-0.0032958984375,0.865936279296875,-0.001678466796875
1774158622445412000,25.039412109375,0.0269775390625,0.929351806640625,0.020538330078125
1774158622465405000,25.059405029296876,-0.0124969482421875,0.9819793701171875,0.0335540771484375
1774158622485399000,25.07939892578125,-0.102752685546875,1.0361175537109375,0.0511932373046875
1774158622505393200,25.09939306640625,-0.25311279296875,1.090911865234375,0.01776123046875
1774158622525387000,25.119386962890626,-0.199737548828125,1.226409912109375,-0.0615234375
1774158622545381000,25.139381103515625,0.0154876708984375,1.3830413818359375,-0.0311126708984375
1774158622565374200,25.159374267578126,0.194549560546875,1.45538330078125,0.222869873046875
1774158622585368000,25.1793681640625,-0.107757568359375,1.4017486572265625,0.32281494140625
1774158622605362200,25.199362060546875,-0.3329315185546875,1.438629150390625,0.2738800048828125
1774158622625356300,25.219356201171873,-0.2238616943359375,1.309814453125,-0.0005950927734375
1774158622645349000,25.23934912109375,-0.299957275390625,1.065338134765625,-0.2233428955078125
1774158622665343000,25.259343017578125,-0.2939605712890625,0.8946075439453125,-0.1452178955078125
1774158622685337000,25.279337158203123,-0.285614013671875,0.748443603515625,-0.17950439453125
1774158622705331200,25.299331298828125,-0.412628173828125,0.85888671875,-0.14776611328125
1774158622725325000,25.319324951171875,-0.5020904541015625,1.09027099609375,-0.01123046875
1774158622745318100,25.339318115234374,-0.367462158203125,1.1914520263671875,0.0926055908203125
1774158622765312300,25.359312255859376,-0.1555328369140625,1.212371826171875,0.0423431396484375
1774158622785306000,25.37930615234375,-0.0286407470703125,1.057342529296875,-0.0018157958984375
1774158622805300000,25.399300048828124,-0.017364501953125,0.9672088623046875,-0.0029296875
1774158622825294000,25.419294189453126,-0.1449127197265625,0.8477935791015625,0.01727294921875
1774158622845287200,25.439287109375,-0.19403076171875,0.741668701171875,0.0109710693359375
1774158622865281000,25.459281005859374,-0.1110076904296875,0.6791229248046875,-0.0286712646484375
1774158622885275100,25.479275146484376,-0.0515899658203125,0.648406982421875,-0.040252685546875
1774158622905269200,25.499269287109374,-0.0850982666015625,0.64556884765625,-0.0141754150390625
1774158622925262300,25.519262451171876,-0.086181640625,0.6499481201171875,0.0038909912109375
1774158622945256000,25.539255859375,-0.121856689453125,0.691192626953125,0.0262908935546875
1774158622965250000,25.55925,-0.0948944091796875,0.712646484375,0.0657501220703125
1774158622985244200,25.579244140625,-0.1088104248046875,0.75811767578125,0.0985565185546875
1774158623005238000,25.599238037109377,-0.1161346435546875,0.819915771484375,0.1029815673828125
1774158623025231000,25.619231201171875,-0.106201171875,0.8940277099609375,0.116485595703125
1774158623045225200,25.63922509765625,-0.1258087158203125,0.9933319091796875,0.116668701171875
1774158623065219000,25.659218994140623,-0.124664306640625,1.1014556884765625,0.110107421875
1774158623085213200,25.679213134765625,-0.1037445068359375,1.2165069580078125,0.114227294921875
1774158623105207300,25.699207275390624,-0.0829315185546875,1.244720458984375,0.1353607177734375
1774158623125200100,25.7192001953125,-0.1473236083984375,1.251983642578125,0.1577301025390625
1774158623145194000,25.739194091796875,-0.0583343505859375,1.301361083984375,0.1900787353515625
1774158623165188000,25.75918798828125,-0.0420989990234375,1.386199951171875,0.156158447265625
