time,seconds_elapsed,z,y,x
1774158597463090700,0.057090576171875,-1.0359458070039749,0.22707243335694074,-1.1035399183273316
1774158597483084800,0.077084716796875,-0.7977531369566917,0.8461641166433691,-0.9605325463622808
1774158597503078700,0.09707861328125,-0.8066378696799278,1.2802265647932887,-0.8760814082622528
1774158597523072800,0.11707275390625,-0.2596913851499557,1.6643617834746836,-0.7022275010041892
1774158597543066600,0.137066650390625,0.3120259680211544,1.4729215122520922,-0.6173664669290184
1774158597563060700,0.157060791015625,0.5995370879888534,1.3096347378462552,-0.6060779975323006
1774158597583054800,0.177054931640625,1.3330232122182846,0.7215104397535324,-0.6111371440853923
1774158597603048700,0.197048583984375,1.7007283973634242,0.253316297160089,-0.6130600019067526
1774158597623042800,0.217042724609375,1.5997276910007,-0.06911854441165924,-0.5701647534342482
1774158597643037000,0.237036865234375,1.6291092683076858,0.09213087894767523,-0.4855481591068208
1774158597663030800,0.25703076171875,1.2675631903141735,0.287309752176702,-0.26449136931020767
1774158597683024600,0.277024658203125,1.0234721098780633,0.31431320217549796,-0.37626335279513146
1774158597703018800,0.297018798828125,1.5898217985361813,0.22360914116054773,-0.2978524812400341
1774158597723012600,0.3170126953125,1.90430158945024,-0.12518413050472735,0.14005204755710438
1774158597743006700,0.3370068359375,1.39291683216691,-0.447690868268907,0.07005429089181124
1774158597763000800,0.357000732421875,1.2958581414282322,-0.26548428933769463,0.08570670938538387
1774158597782994700,0.37699462890625,1.0219511839210986,0.041239188361167904,0.08815943629974499
1774158597802988800,0.39698876953125,0.426916668048501,0.11544131964743137,0.16604443908352404
1774158597822983000,0.41698291015625,-0.23445406804084776,0.039567748017609115,-0.012969773547165095
1774158597842976800,0.436976806640625,0.060220952206850045,-0.017152502591907978,-0.1886204645615071
1774158597862971000,0.456970947265625,0.2547346395254135,-0.5270186720058322,-0.004388444217294454
1774158597882964700,0.47696484375,-0.05478080697953701,-0.9490630578428506,-0.21965401032660156
1774158597902958800,0.496958740234375,-0.5703437267303466,-0.9306208077013493,-0.4952927235297858
1774158597922952700,0.51695263671875,-0.6176981831014156,-0.7216928105831146,-0.6815588800501078
1774158597942946600,0.536946533203125,-1.1496031658440828,-1.042396882839501,-0.8675495075646787
1774158597962940700,0.556940673828125,-1.0161574029505251,-1.209301847742498,-0.6639916591774672
1774158597982934800,0.576934814453125,-0.7355272746682167,-1.5230471869021653,-0.525376567354612
1774158598002928600,0.5969287109375,-0.8933201278328895,-1.6093816545307635,-0.1396368360860273
1774158598022922800,0.6169228515625,-1.552304261046648,-1.5189379980176687,-0.5893786820679903
1774158598042916900,0.636916748046875,-1.6352946789443492,-0.7509642055138945,-0.5180393928669392
1774158598062910700,0.65691064453125,-0.9951344886660576,-0.03124298726469278,0.46949813786409794
1774158598082904800,0.67690478515625,-1.368584354943037,1.2297358562231062,0.7156986847348511
1774158598102899000,0.69689892578125,-1.9711001664817331,2.9297914688915014,0.07494651991277933
1774158598122892800,0.716892822265625,-1.8270628669470548,4.107093373522162,-0.26219898405671116
1774158598142887000,0.736886962890625,-2.0116209774404763,1.160180966220796,0.30441096297278997
1774158598162880800,0.756880859375,-1.6931728674173354,-0.8219719246730208,0.5819745432913302
1774158598182874600,0.77687451171875,-1.076261450779438,0.5193126276731491,0.45947132243365046
1774158598202868700,0.79686865234375,-0.14629939924776553,2.389714870131016,1.317356272009015
1774158598222862800,0.81686279296875,-0.44671559349596496,2.4704905345886945,1.1761124025851488
1774158598242856700,0.836856689453125,-2.5397119548529385,2.292388468366861,0.3942781347721815
1774158598262850800,0.856850830078125,-0.5549450820684433,0.9755728791058063,1.0674190958932042
1774158598282845400,0.876845458984375,-0.5347025045067072,0.33882921927273274,0.9091746995687484
1774158598302839600,0.896839599609375,-1.0979834532439707,0.5314525628000497,0.8529907477930188
1774158598322833700,0.916833740234375,-0.05911503679156303,1.3027967085197567,1.3431243349939583
1774158598342827500,0.93682763671875,1.083225444573164,2.090785991831124,1.6108955662250517
1774158598362821600,0.956821533203125,2.1208710412323475,1.16145084002614,0.5824257941901684
1774158598382815500,0.9768154296875,1.5633739365935324,0.08474106095731258,-0.31943887462615966
1774158598402809600,0.9968095703125,0.9631640639096498,-0.5402481559351087,-0.08300736903250217
1774158598422803500,1.016803466796875,1.6035037024080752,-0.24768150614351034,-0.01607669005393982
1774158598442797300,1.03679736328125,3.5176878034472465,-0.783492848674953,0.14176701651513576
1774158598462791400,1.05679150390625,3.2432465929329393,-0.2749769248262048,-0.12726736651957035
1774158598482785500,1.07678564453125,2.78230899733901,-0.2261547339901328,-0.1507142930805683
1774158598502779400,1.096779296875,1.6591636303097008,-0.20000176334083078,0.015348375779390334
1774158598522773500,1.1167734375,1.4434522566616534,0.13828545800969003,-0.3885053965896368
1774158598542767600,1.136767578125,2.394846387800574,-1.0333888159975408,-0.13579904802143572
1774158598562761500,1.156761474609375,3.2626892522886393,-2.9688682185217736,-0.8599456814974545
1774158598582755600,1.176755615234375,2.464215692102909,-1.874465254113078,-1.5451526357263325
1774158598602749700,1.196749755859375,2.2776360126540065,-1.9987495131686328,-2.4618477939277885
1774158598622743600,1.21674365234375,2.165958137193322,-0.790953832205385,-2.8786580785036087
1774158598642737700,1.236737548828125,1.0285682639732956,0.3444195500930771,-2.911826773133874
1774158598662731500,1.2567314453125,-0.14764116924554108,0.3828732724541798,-3.0454835484296083
1774158598682725400,1.276725341796875,-1.0148702857494354,0.20783881364203988,-2.7561364452064034
1774158598702719500,1.296719482421875,-1.6590058093994855,0.003560176699608564,-2.516426356333494
1774158598722713300,1.31671337890625,-2.1870634690642357,0.14235168453529476,-2.1609949618279933
1774158598742707500,1.33670751953125,-1.8920289678543805,0.5651250422339886,-1.0288988111019135
1774158598762701600,1.35670166015625,-0.8006547036170959,1.4674272987499832,0.6418138027042151
1774158598782695400,1.3766953125,0.11290011073201894,1.5878466990709303,1.9523340912133453
1774158598802689500,1.396689453125,-0.2707368030384183,0.3859177181839943,2.0102683937877415
1774158598822683600,1.41668359375,-1.3130746491670608,-0.9501666351705789,1.5813456466138363
1774158598842677500,1.436677490234375,-1.668156207321584,-1.191535597166419,1.3763169950217007
1774158598862671600,1.456671630859375,-0.9727101831510663,-1.3512788537465035,1.0622411087334156
1774158598882665500,1.47666552734375,-0.35667876421809197,-0.8757957231886684,0.9044979399293661
1774158598902659300,1.496659423828125,0.34263971747159955,-0.4744887126930058,0.4677613041341305
1774158598922653400,1.5166533203125,0.7114186693280935,-0.09560440027713775,0.1521568931043148
1774158598942647600,1.5366474609375,0.8947183041930198,0.19439356807023286,0.8379834405362605
1774158598962641400,1.556641357421875,0.26737463312894105,0.5191453082822263,1.3677064030647277
1774158598982635500,1.576635498046875,-0.20331950958669184,0.8216103978842496,1.1845429618000984
1774158599002629600,1.596629638671875,-0.7552478741824626,0.8324411501087248,1.1841495785683394
1774158599022623500,1.61662353515625,-0.21343027697354555,0.8793917018540203,0.8177513843685388
1774158599042617600,1.63661767578125,1.3024714220881461,-0.022246903121471404,0.6168494573175907
1774158599062611500,1.656611572265625,1.2393798828810452,0.010125088173151015,0.7763228109151125
1774158599082605600,1.67660546875,0.2803083489820361,-0.6582390139348805,1.1434224313825367
1774158599102599700,1.696599609375,0.02681669525504112,-0.5469117054775356,1.0248848992854356
1774158599122593300,1.71659326171875,-0.36677959473282096,1.6829039868593214,1.0981401051104067
1774158599142587400,1.73658740234375,1.4932716418415306,-0.556069994445145,1.8190344587922096
1774158599162581500,1.75658154296875,1.7473568775475024,-0.6459232838496566,0.6968804408878088
1774158599182575400,1.776575439453125,0.7945467421308159,-1.4946939297296107,-0.3136497698307037
1774158599202569500,1.796569580078125,0.3766349260538816,-0.04607230760604143,0.01651098981797695
1774158599222563600,1.8165634765625,-1.1319286852046846,1.7774147466808556,-0.23631927739083766
1774158599242557400,1.836557373046875,-1.0433932004004716,2.5254174720406533,-0.895995484521985
1774158599262551600,1.856551513671875,0.49000148525387044,2.617399590167403,-1.2310428471684456
1774158599282545400,1.87654541015625,1.0281699123054742,1.231241292349994,-1.474355928969383
1774158599302539300,1.896539306640625,0.9438479535430669,1.217632453714311,-1.970507461285591
1774158599322533400,1.916533447265625,1.3686698412694036,1.5143956784129142,-1.653991780629754
1774158599342527200,1.93652734375,-0.613299655881524,1.7320301290780304,-1.8016688979715108
1774158599362521000,1.95652099609375,-1.1074886559531092,-0.04484861102998256,-2.0156097548156975
1774158599382515200,1.97651513671875,-1.219272037614882,-0.4078948644533753,-1.1862263848423957
1774158599402509300,1.99650927734375,-1.9973668266385793,-0.13588365756496787,-0.20206103395819663
1774158599422503200,2.016503173828125,-2.1122727242350576,-1.5393024483934044,0.7294511696249246
1774158599442497300,2.036497314453125,-1.185097380812466,-2.4313152930200097,1.631686425319314
1774158599462491400,2.056491455078125,-0.7476724704921245,-1.8400595650337634,1.0542173767536878
1774158599482485200,2.0764853515625,-0.4160243948951363,-1.4379123043216764,-0.08616846341192722
1774158599502479400,2.096479248046875,-0.6437354184165597,-1.8255968860477207,-0.8517635440856218
1774158599522473200,2.11647314453125,-0.7760024929195642,-1.3085853749237955,-1.249203357759118
1774158599542467300,2.13646728515625,-0.44631227339208124,-1.4323837501585484,-0.18113398126363753
1774158599562461400,2.15646142578125,0.20480331840366123,-0.5882547926045953,0.15444529630243778
1774158599582455000,2.176455078125,0.17356413053125141,0.21524916296377777,0.7330529935091733
1774158599602449200,2.19644921875,0.2618865571066737,0.10676292315125464,1.2373422395735978
1774158599622443300,2.216443359375,0.9155179311156272,-0.23207769429832695,0.6220902805805206
1774158599642437000,2.23643701171875,1.3702075722306966,0.6620644174419343,0.9065928663820028
1774158599662431200,2.25643115234375,1.2611051002159714,-0.06562091155424714,0.6867711348056793
1774158599682424300,2.27642431640625,0.8099874723687768,-0.48543826899155973,0.38198797751963137
1774158599702418400,2.29641845703125,1.17131698500216,-0.5491086309999227,0.7952250797837972
1774158599722412300,2.316412353515625,1.3642892880976198,-0.9059659666553139,1.438320738992095
1774158599742406400,2.336406494140625,1.2049907065451144,-0.9730474522814154,1.216360826343298
1774158599762400300,2.356400146484375,1.3261091950461268,-1.0185920827515422,0.5481529377102852
1774158599782394000,2.37639404296875,1.510546601769328,-0.7707998097099363,0.09937632003128528
1774158599802388200,2.39638818359375,1.687274457028508,-0.5495763946421444,-0.563966592913866
1774158599822382300,2.41638232421875,1.4437240593403577,-0.14044102860838173,-1.1239560988903046
1774158599842376200,2.436376220703125,0.16470555516257882,0.7432917711898684,-0.5429483548045158
1774158599862370300,2.456370361328125,-1.2857564341306686,1.0609040149107576,-0.4442869050443172
1774158599882364200,2.4763642578125,0.4846611471392214,-0.36963089251071213,-0.7767758153796196
1774158599902358300,2.496358154296875,1.6282720868311822,-0.37346038767099377,-0.9104518798977136
1774158599922352400,2.516352294921875,-0.12146408706828951,0.41162995932847257,-1.713177544569969
1774158599942346200,2.53634619140625,1.9296037884891033,0.17320289600342512,-1.9858207657516
1774158599962340400,2.55634033203125,1.6619344101972877,0.3724553022816777,-2.1674808167159556
1774158599982334500,2.57633447265625,-0.5196719625048339,1.107332296347618,-2.0950924568533895
1774158600002328000,2.596328125,-0.46197117642536756,1.7688520855188368,-1.1994833413004875
1774158600022322200,2.616322265625,0.15010171414017676,1.6561553884044289,-0.4349631963819265
1774158600042316300,2.63631640625,-0.20361746961995958,1.9580825717374681,-0.40645431025624273
1774158600062310100,2.65631005859375,-2.9081413626194,2.003083450719714,-0.5657195740610361
1774158600082304300,2.67630419921875,-0.7349610190875828,-2.6968326078444718,-1.4388754502654075
1774158600102298400,2.69629833984375,-0.6560058480553329,-2.390449614146352,-0.6099029991805553
1774158600122292200,2.716292236328125,-1.6931149997502564,-2.494436058321595,0.13418167595267294
1774158600142286300,2.736286376953125,-2.0965029081732034,-2.4567142304316163,0.5246393756538629
1774158600162280400,2.756280517578125,-1.6354161133669316,-1.679810989280045,0.42539808017909525
1774158600182274300,2.7762744140625,-0.7642563794158399,-0.7829901598498225,0.9773889886170625
1774158600202268400,2.796268310546875,-0.379424264511466,0.15431377887725828,0.7739946602284908
1774158600222262300,2.81626220703125,-0.01885989103168249,0.7431570388942956,0.8110545170783996
1774158600242256100,2.836256103515625,-0.10105506689846515,1.2345347809374332,0.3624591011852026
1774158600262250200,2.856250244140625,0.31025559734776614,0.6918865781232715,0.19407646494507788
1774158600282244400,2.876244384765625,0.6584931348264217,0.5596823397234082,0.6775830352216958
1774158600302238500,2.896238525390625,0.5694988003388047,0.9207973328232765,1.430002992501855
1774158600322232300,2.916232421875,0.7531682914294302,0.6409405270010232,1.6996669056117533
1774158600342226200,2.93622607421875,0.9723862118937074,-0.09464636889994144,1.7532728235930204
1774158600362220300,2.95622021484375,1.2385063149169087,-0.5943468258693814,1.827428193128109
1774158600382213400,2.97621337890625,1.5136277627803385,-0.7619076243326067,1.7494249159932136
1774158600402207500,2.99620751953125,0.8642340263411402,-0.8540059161849319,1.5674077221542595
1774158600422201300,3.016201416015625,-0.008746201035380362,-0.6348201444245875,1.4775778136253357
1774158600442195500,3.036195556640625,-0.41381431763023135,-0.16318813633695245,1.3222563190102576
1774158600462189300,3.056189208984375,-0.32773908545970915,0.3132208768941462,1.158853224748373
1774158600482183400,3.076183349609375,0.3796732708364725,0.3038257104307413,0.5124643692135811
1774158600502177300,3.09617724609375,0.42586248282045125,0.018053396954387426,0.13630115232467652
1774158600522171100,3.116171142578125,0.4174643645703792,-0.40152693685665725,-0.2080366012364626
1774158600542165200,3.136165283203125,0.08140417161956429,-0.09409297280088066,-0.8578735513985156
1774158600562159400,3.156159423828125,-0.4254465954959392,0.08377586918696761,-1.5665432142794131
1774158600582153200,3.1761533203125,-0.7522364174067974,0.5398921821042895,-1.6395687030017374
1774158600602147300,3.196147216796875,-0.45100686094909903,0.19021818208172916,-1.5149486361205577
1774158600622141400,3.216141357421875,0.32282164893224835,-0.23257950634062288,-1.5388228481829165
1774158600642135300,3.23613525390625,0.15962357572317123,-0.33422654778286814,-1.8258114055812358
1774158600662129400,3.25612939453125,-0.7469052855119108,0.3191452985070646,-1.69204532469213
1774158600682123500,3.27612353515625,-0.9484484330758451,0.7721379264459014,-1.6552333051234482
1774158600702117400,3.296117431640625,-0.4894895902089774,0.28167788376957176,-1.8349632648080587
1774158600722111500,3.316111572265625,0.35226913108229635,-0.41723420907631514,-2.1093781718373297
1774158600742105300,3.336105224609375,-0.5082978971838951,-0.7516136093333363,-2.54713246024251
1774158600762099200,3.35609912109375,-0.9920147492103278,-0.9480857372432947,-2.5234137310028073
1774158600782093300,3.37609326171875,-1.9010460947856307,-0.4776419160269201,-2.1424264549583194
1774158600802087400,3.39608740234375,-2.3778734795592724,0.4747374267570674,-1.195332651361823
1774158600822081300,3.416081298828125,-1.8062194008827208,0.4473047915607691,0.07901333096027374
1774158600842075400,3.436075439453125,-0.6498707063011825,-1.3180091829597949,1.8040742055475711
1774158600862069200,3.4560693359375,-0.2571972302466631,-0.0710625180862844,1.0816560032993554
1774158600882063400,3.4760634765625,0.10065700749158858,-0.015303367593884468,2.985301759189367
1774158600902057500,3.496057373046875,0.9008481852501631,-2.0160124903976917,2.0883084958016873
1774158600922051300,3.51605126953125,0.4941825703307986,0.09071268271282315,2.2413649680942296
1774158600942045400,3.53604541015625,0.535263207129389,-0.017337942161411046,2.376009000861645
1774158600962039300,3.556039306640625,0.6906611279815436,0.05806421256437897,1.5983786144793033
1774158600982032400,3.576032470703125,1.0345622436910866,-0.7663048363782465,1.6522084043443201
1774158601002026200,3.596026123046875,1.09028237734735,-0.2974763414040208,1.2080576929003
1774158601022020400,3.616020263671875,0.5081815773278474,-0.4175910596899688,0.10748188507556915
1774158601042014500,3.636014404296875,1.0010706007167696,-1.0020249788321554,-0.14683072964549063
1774158601062008300,3.65600830078125,1.1395157793328166,-0.9463006073921918,-0.12305413273870944
1774158601082002400,3.67600244140625,1.613787780535221,-1.1073542159184813,0.6083598613917828
1774158601101996500,3.69599658203125,0.7614180872499943,-0.6772768918819725,1.1129746861487626
1774158601121990400,3.715990478515625,0.2790601024866104,1.1824246544718742,1.2099006904184817
1774158601141984500,3.735984619140625,1.1597104260995983,1.2963969244800506,1.5888988384723663
1774158601161978400,3.755978271484375,2.017428786936402,0.9878808642759919,1.6585563120663165
1774158601181972200,3.77597216796875,1.9183385903701184,0.14857377392053603,1.8991320778578518
1774158601201966300,3.79596630859375,0.9967159126386046,0.22008944260179994,1.2485346647173166
1774158601221960200,3.815960205078125,1.0966907830849288,-0.9696025725245475,0.5572586197078228
1774158601241954300,3.835954345703125,0.528648172903806,-0.01278320146650076,-1.1270014579355716
1774158601261948400,3.855948486328125,-0.09510054240822792,1.7894354393422602,-2.9210704022973775
1774158601281942000,3.87594189453125,-1.4713064782708882,1.1329510139897465,-3.9812235988408324
1774158601301936000,3.89593603515625,-0.9137719642311334,0.17849632623642683,-3.957796546024084
1774158601321930200,3.91593017578125,-0.828865337448567,1.8557333733752368,-4.474803819364309
1774158601341924000,3.935924072265625,0.7043344101555645,4.550215326440334,-1.1962421674221753
1774158601361918200,3.955918212890625,1.7704302946209907,3.0946552833557126,3.4159184507995843
1774158601381912300,3.975912353515625,-0.48542913583703334,1.1788783601671458,-0.3118336603194475
1774158601401906200,3.99590625,-1.325410983648896,1.9388485866963863,-2.13026547704339
1774158601421899000,4.01589892578125,-1.647018434485793,-0.13759879091978072,-3.5373733316481113
1774158601441893000,4.03589306640625,-1.6607979535132646,-1.403060625040531,-3.0033915426313875
1774158601461887200,4.05588720703125,-1.6281728642404079,-1.675593956106901,-0.5291004467159509
1774158601481881000,4.075881103515625,-1.587485464543104,-1.9334885209679602,0.5242126746743917
1774158601501875200,4.095875244140625,-2.803008671018481,-2.597459210422635,0.2700146262437105
1774158601521869000,4.115869140625,-3.190195386224985,-2.3301538431376216,-0.0825748228341341
1774158601541863200,4.13586328125,-2.349823589247465,-1.0989748023688792,0.9654735098958015
1774158601561857300,4.155857177734375,-0.3721791156888008,-1.146588786458969,1.1875094103902577
1774158601581851100,4.17585107421875,-0.07088320686346851,-2.149143780514598,0.02610825472474098
1774158601601845000,4.195844970703125,1.415655318197608,-1.9994827958792447,-1.30183020157516
1774158601621839000,4.215839111328125,1.1357242780953645,-0.008292612048983574,0.363420639693737
1774158601641833000,4.2358330078125,1.2371113534271716,1.0711240878909825,1.0994722304970026
1774158601661827000,4.2558271484375,1.7249959926575422,0.3793862705886364,1.7619471284359693
1774158601681821200,4.2758212890625,-0.0007329904496669769,-0.9325573287218809,2.8953391641914843
1774158601701815000,4.29581494140625,-0.4834522097408771,0.023930910685658453,2.0179192008018494
1774158601721809200,4.31580908203125,-0.3447713957380503,-0.8177811949849129,1.8877391617059707
1774158601741802200,4.33580224609375,-0.8179051136255264,-1.05053898050189,0.7427092951267957
1774158601761796400,4.35579638671875,-2.7283757470995185,-1.7706529974609613,0.036925416815280915
1774158601781790200,4.375790283203125,-1.8204262054115532,-2.604098210045695,-1.0162889203757046
1774158601801784000,4.3957841796875,1.8085235861718654,-1.9180489597737789,0.22847324006557462
1774158601821778200,4.415778076171875,2.8251883541226386,-1.1222703377604484,1.0338479579418898
1774158601841772000,4.43577197265625,2.8567244791150093,-1.2611667672753333,1.2538906387925148
1774158601861766100,4.45576611328125,2.879080687829852,-0.7668944728344679,1.434137315827608
1774158601881760000,4.475760009765625,2.911084430333972,2.3178695311039683,-0.825005885541439
1774158601901754000,4.495754150390625,-0.3180027043431997,1.989507929831743,-1.733476236233115
1774158601921748200,4.515748291015625,0.6391296781867742,3.4327608645290133,-1.223104455384612
1774158601941742000,4.5357421875,-0.671965195339918,3.0757535990089178,-0.9235001620411872
1774158601961736200,4.555736083984375,-0.5793751744478941,2.226580071416497,0.43688335078954693
1774158601981730300,4.575730224609375,1.3140753506422043,0.5384270779877901,0.10371990219354629
1774158602001723100,4.59572314453125,0.7470119607567787,-0.00810673408806324,-0.11259177543520926
1774158602021717000,4.615717041015625,1.121498768866062,0.1832481969386339,-1.870430884030461
1774158602041711000,4.635711181640625,-2.2497037573724983,-0.5669125832378864,-1.4669757555902003
1774158602061705200,4.655705322265625,-4.744005960181355,-2.4691268450200554,-0.7646776735678315
1774158602081699000,4.675698974609375,-0.7789671879440545,-1.3593641066551208,-1.473518601362407
1774158602101693200,4.695693115234375,-1.8495352493874728,-1.2393015569478272,-1.2614786097034811
1774158602121687300,4.715687255859375,-3.144030431899428,-2.356964693173766,0.2888081740409136
1774158602141681200,4.73568115234375,-1.9478027313940225,-4.445481278768182,1.8664990975394844
1774158602161675300,4.75567529296875,-0.5316442859798669,1.5897680225223303,0.7158896772623061
1774158602181669000,4.775669189453125,1.321101303756237,10.665274077504872,-0.9641764558225869
1774158602201663200,4.795663330078125,2.1723399471849203,5.795780619958043,1.8067334878847001
1774158602221657000,4.815656982421875,-0.5473643446158617,-1.6542051311194896,3.125922820539772
1774158602241650200,4.835650146484375,-0.24615268914103505,-2.301829665929079,1.248200025935471
1774158602261644000,4.85564404296875,-0.697784038664028,-3.2673400007039306,-0.18903350234180688
1774158602281638000,4.875637939453125,-0.008293927223235369,-0.989113328680396,-0.21020137805491684
1774158602301632000,4.895632080078125,-1.4664479323238133,-0.6136456928402185,-1.3889463211007416
1774158602321625900,4.9156259765625,3.5878134790748355,-1.5454109944015741,0.12672361503168939
1774158602341620000,4.935619873046875,1.470737738472223,-3.0497891366690397,-0.01073079898133874
1774158602361614000,4.955614013671875,1.525244989207387,-2.256569551488757,0.16296674867123365
1774158602381608000,4.97560791015625,1.3370996678769587,0.39843700801730153,-0.02642185071855783
1774158602401602000,4.99560205078125,1.3695729275889694,0.7963637284249067,-0.5901419215254485
1774158602421596200,5.01559619140625,2.524031570640206,-0.624745179003477,-0.3102444914318621
1774158602441590000,5.035590087890625,1.4708733475506304,-0.4660018932461738,-0.21986147906482217
1774158602461584100,5.055584228515625,0.34778935531973837,0.10740706627368926,0.00749868519231677
1774158602481577000,5.075576904296875,0.16131284398436546,0.8247627244353294,-0.17457710696607828
1774158602501570800,5.09557080078125,0.8879461797095834,0.8684224179416894,-0.5645160434901714
1774158602521565000,5.11556494140625,1.6022138087280093,1.1767542076200246,-1.0095110968038439
1774158602541559000,5.13555908203125,1.397902219364047,1.3430892636805771,-1.048020714070648
1774158602561553000,5.155552978515625,1.3320844700634478,1.5042904639840124,-0.6605325316995382
1774158602581547000,5.175547119140625,0.9485795851748436,2.730093072411418,-0.8971703735202551
1774158602601541000,5.195541015625,0.13293956693708897,3.382475615403056,-0.45626112821549175
1774158602621535000,5.215534912109375,0.15369126306474207,2.889022820651531,-0.31514804556444287
1774158602641529000,5.235529052734375,-1.1247709224045277,2.065033418676257,-0.6075387542672455
1774158602661523200,5.255523193359375,-1.5315776993602512,1.4133932184845208,-0.15916399538740514
1774158602681517000,5.27551708984375,7.3678651017516845,0.6933966904252767,0.671613751553744
1774158602701510000,5.295510009765625,-3.107157037532329,-1.5388427219271659,1.5017410717621444
1774158602721504000,5.31550390625,-5.791082233008742,-0.6426894164949655,0.1892456837877631
1774158602741498000,5.335498046875,-5.818530211904645,-0.37871114780604836,-0.26885858807638285
1774158602761492000,5.355491943359375,-3.365759458401799,-0.5987631810069084,0.36135596224889155
1774158602781486000,5.375486083984375,-3.231977010899782,-1.07277010153234,0.032283728489279746
1774158602801480000,5.39547998046875,-0.23368768677823243,0.5923357783079147,0.3853602304317057
1774158602821474000,5.41547412109375,-0.8946761455517261,-0.30137364110350606,1.0069275100514292
1774158602841468200,5.43546826171875,0.4971100020848214,-1.0788573124915362,0.21528744914755224
1774158602861462000,5.4554619140625,4.16806485183537,-1.766609859549999,-0.2722152050279081
1774158602881455900,5.475455810546875,9.354579016950726,0.1529804844468832,0.018175269768387077
1774158602901449000,5.495448974609375,-6.830269213891029,-2.015766991204023,1.8367574547484515
1774158602921443000,5.515443115234375,-4.258127107815445,-1.2159762109398842,0.5888491052359343
1774158602941437000,5.53543701171875,3.55432797358036,-4.052482077890634,0.8469596509352326
1774158602961431000,5.55543115234375,1.9869465549111365,-2.038578542470932,1.4181611635386944
1774158602981425200,5.575425048828125,1.0840141107328236,-1.3362702313154935,2.2046578702047466
1774158603001419000,5.5954189453125,-0.9885480960130691,-1.2583131314098834,0.4845443888917565
1774158603021413000,5.6154130859375,-0.023440935211628672,-3.1882740627735853,-0.06727379332780838
1774158603041407200,5.6354072265625,-0.5198188236296176,-0.5049357272744178,1.0195900077477096
1774158603061401000,5.655401123046875,0.23542115950733422,-1.5511276184827087,1.2957210710451006
1774158603081395000,5.67539501953125,-0.09680939215272664,0.5502396808564662,1.6933175365850328
1774158603101388000,5.695387939453125,-1.1355664571851491,5.837518405491113,1.1073989318430424
1774158603121382000,5.7153818359375,1.1958908697664736,1.3150129237532615,0.02563479199409485
1774158603141376000,5.7353759765625,0.18099442666247487,1.0263771836698055,-0.5371615880966186
1774158603161370000,5.7553701171875,1.2658461572632194,3.242042477840185,0.7222285248950123
1774158603181364000,5.775364013671875,1.593752123722434,2.8353730635285377,0.3884346694409847
1774158603201358000,5.795358154296875,-0.548556257814169,3.0891368121951817,-0.24877280851155517
1774158603221352200,5.815352294921875,0.21535320786014198,3.703743459022045,-0.14790274279117582
1774158603241346000,5.835345947265625,-1.7306775454252958,3.692405487927794,-0.7861603143185376
1774158603261340000,5.85533984375,-4.496432298326492,2.752621715083718,-1.9817600921839476
1774158603281333000,5.8753330078125,-1.4759329690277576,3.349981459033489,-0.7979314161330461
1774158603301327000,5.8953271484375,-1.3495587519556282,-1.519972601762414,-0.9824959563672542
1774158603321321000,5.915321044921875,-1.1163659360222518,-3.295422770372033,-2.4986177279204127
1774158603341315000,5.935315185546875,-0.047371115244925016,-3.4677146890103816,-3.77113591029346
1774158603361309000,5.955308837890625,-1.3658059762708843,-2.229381684833765,-4.055526267892122
1774158603381303000,5.975302978515625,-4.1964100718319415,-2.2031951041758058,-2.178743822877854
1774158603401297200,5.995297119140625,0.20576456465125081,1.8353408659487962,0.13090557689145207
1774158603421291000,6.015291015625,3.309991978472471,-0.027322306689620015,1.6705680907689033
1774158603441284900,6.035284912109375,-0.364299176093936,-1.9835393768161533,1.1033698224574326
1774158603461279000,6.055279052734375,0.9711436644867062,-0.21458616901040076,0.16568112219646572
1774158603481272000,6.07527197265625,0.6271015328712761,-0.5608738875955342,0.141798288436234
1774158603501266000,6.095265869140625,1.5899382645227014,-2.892909306696057,0.06213891465738415
1774158603521260000,6.115260009765625,3.4428228243380783,-3.112498398560285,0.9372997009433806
1774158603541254100,6.135254150390625,0.46568537464290854,-2.2540181134402753,0.38015550139546395
1774158603561248000,6.155248046875,0.7414673322416842,-1.6944687524467705,-0.31108737199679015
1774158603581242000,6.1752421875,0.18229791047647595,-1.8882950420230626,-0.23651173122301697
1774158603601236200,6.195236328125,0.5304743654176592,-1.8712398623257875,-0.1722422342777252
1774158603621230000,6.21522998046875,0.8631511995404958,-1.3747346942663192,-0.009438128822296858
1774158603641224000,6.235223876953125,1.2576543752402067,-0.968171078416705,-0.13259396836981177
1774158603661217000,6.255217041015625,1.4022943168431519,-0.8600339443027972,-0.545229889870435
1774158603681211000,6.2752109375,2.354269462740421,0.05289630840718746,-0.5623259860999882
1774158603701205000,6.295205078125,1.016249172887206,0.5434206484913826,-1.2915687736712396
1774158603721199000,6.31519921875,2.2534429439008234,0.37388767317235466,-1.1554567141778767
1774158603741193000,6.33519287109375,1.036093106520176,1.771017154598236,-0.8369162496961653
1774158603761187000,6.35518701171875,1.6224129855394362,2.143859702631831,-1.3789450054377317
1774158603781181200,6.37518115234375,0.9974813440531491,3.2191631220340726,-0.5276385574698448
1774158603801175000,6.395175048828125,0.7245746496297418,4.948199914515018,0.1813593144521117
1774158603821167900,6.41516796875,0.8854231640379875,4.402245363631844,0.16930048173740506
1774158603841162000,6.435161865234375,-0.367766633008793,2.1314970646649596,-0.958744640032202
1774158603861156000,6.455156005859375,-0.6655453914254903,1.0928379070490597,-1.3840648326694964
1774158603881150000,6.47514990234375,-0.32594058467037973,0.7511462840825319,-0.9302432065606117
1774158603901144000,6.49514404296875,-2.384853986096382,-0.6840864257663488,-0.6957235259376466
1774158603921138200,6.51513818359375,-3.4740222647219894,-2.2718466155976054,-1.0587702177524565
1774158603941132000,6.535132080078125,-3.2630338279426097,-2.159978478261828,-1.1267172341667115
1774158603961126100,6.555126220703125,-2.8928917710393667,-0.25739421412348745,-0.49761707482412454
1774158603981120000,6.5751201171875,-2.248238360995054,0.4339572342097759,-0.4463470524445176
1774158604001112800,6.59511279296875,-2.8852409640252588,0.825876823157072,-0.25840134533941744
1774158604021107000,6.61510693359375,0.7239690118867903,-0.3437497245401144,0.6449063618920743
1774158604041101000,6.63510107421875,1.3510276554644107,-0.6241624106794595,0.8156229940377175
1774158604061095000,6.655094970703125,2.034580997267365,-1.7277233717948197,1.0019980908252297
1774158604081089000,6.675089111328125,0.39932263174541294,-1.8607991323322057,1.2449306488759815
1774158604101083100,6.695083251953125,0.40140995941348373,-2.3805706096887587,0.48812063994333144
1774158604121077000,6.715076904296875,0.23596154999434946,-2.3301281241744753,-0.3832324246227741
1774158604141071000,6.735071044921875,-0.4910474871754646,-2.3151053270876405,-0.1372241123884916
1774158604161064000,6.75506396484375,0.2588240277308971,-1.7767922308683395,0.47094840973764657
1774158604181058000,6.77505810546875,-0.05125840500704944,-1.4890291819661854,1.4425921327009796
1774158604201052000,6.795052001953125,0.701639618113637,-0.3026069822907448,1.7148900475762783
1774158604221046000,6.8150458984375,0.3929219709228724,-0.6723591630935668,1.491658069165051
1774158604241040000,6.835039794921875,0.23655359760336578,-0.11301496928334236,0.3256795225813985
1774158604261034000,6.855033935546875,0.7203321166891604,-0.3669359543383121,0.6906903540760279
1774158604281028000,6.875028076171875,0.5960644434422254,-0.7483598682343959,1.3710840628042815
1774158604301022000,6.89502197265625,0.8639088129747658,-0.31258593999147416,1.6931028709210454
1774158604321014800,6.915014892578125,0.4896633393406868,-0.011133388432860374,1.6981944949716328
1774158604341009000,6.9350087890625,0.16193068362176416,0.6372849271029234,1.1458590108796953
1774158604361003000,6.9550029296875,-0.3948930518001318,1.3494862712413072,0.7090288515821099
1774158604380996900,6.974996826171875,0.6960941858809441,2.2757664193898437,0.7031168510593474
1774158604400991000,6.994990966796875,0.8469505177807063,2.6105636066675184,0.6651976009011268
1774158604420985000,7.014985107421875,1.4609475813418626,1.657650887659192,1.3974313869819044
1774158604440979000,7.03497900390625,0.8766291783381253,2.8181185618668794,0.28593028051704167
1774158604460973000,7.05497314453125,-0.6299135215520858,3.8721500606596466,-0.5267489151537418
1774158604480966000,7.0749658203125,-1.5208739345163107,3.8550750072181224,-1.1551758514098822
1774158604500960000,7.0949599609375,-0.9588385288607328,1.2329986574113367,-0.5081108501791953
1774158604520953900,7.114953857421875,-2.222282666483521,-0.9591419687867164,-0.8791346583530306
1774158604540948000,7.134947998046875,-2.520180155909061,-1.275624916216731,-1.3638636100314556
1774158604560941800,7.15494189453125,-1.1496627870768308,-0.5923211652606726,-2.493934538540244
1774158604580936000,7.17493603515625,-1.040095985485986,0.388786551618576,-3.116844903331995
1774158604600930000,7.194929931640625,-0.8330974220603704,0.8776368210107087,-2.6034248408287763
1774158604620924000,7.214923828125,-0.625388737604022,0.2634393395066261,-1.532426717405021
1774158604640917000,7.2349169921875,-0.6466144809842109,0.2869429646909237,-0.555604861151427
1774158604660911000,7.2549111328125,-0.006865209594368934,-0.5227800115227699,-0.11276947008967399
1774158604680905000,7.274905029296875,-0.11192304586078972,-0.6542892533957958,0.1536002237804234
1774158604700898800,7.29489892578125,-0.656909080505371,-1.2613514761924742,0.6396032870478928
1774158604720893000,7.314892822265625,0.5155646733164787,-1.612706415039301,0.0714366120956838
1774158604740887000,7.334886962890625,2.685977451831102,-2.088566269955039,-0.048687093214318154
1774158604760881000,7.354880859375,0.08092946677990258,-2.2637843051731585,-0.23063290231749414
1774158604780875000,7.374875,1.429491535848379,-1.931578887954354,0.48445437252074475
1774158604800868000,7.3948681640625,1.8858423881739377,-1.5521072771698237,-0.005487491500377655
1774158604820862000,7.414862060546875,1.3794804274886845,-1.754008152130246,-0.307828516331315
1774158604840856000,7.43485595703125,0.8940344135820865,-1.591452614608407,-0.11407375762127339
1774158604860850000,7.454849853515625,1.1955442482858896,-1.689412053579092,-0.41516514771729707
1774158604880843800,7.47484375,1.9391577987760305,-1.9966466956704854,-0.6022613983862102
1774158604900838000,7.494837890625,1.0633956125307829,-1.5982476815760134,-0.5572435682691633
1774158604920832000,7.51483203125,1.0180238544095308,-0.40782969026267524,-0.3381392642471939
1774158604940825900,7.534825927734375,1.1751024218250066,0.1604144338399172,-0.3658339113805443
1774158604960819000,7.55481884765625,1.5091379040151833,1.0112953498721122,-0.7528007002260535
1774158604980813000,7.57481298828125,1.1393588352054358,2.0811264753431082,-1.4141063351899386
1774158605000807200,7.59480712890625,1.4960416910767553,2.396462006303668,-1.0684235236953943
1774158605020801000,7.614801025390625,1.4977145927250384,3.1971430134057996,-0.3192686326257884
1774158605040795100,7.634795166015625,0.7685363948225975,4.305916156211495,0.9582808219127357
1774158605060789000,7.6547890625,-0.7140104393869638,3.583791383951902,0.5931947332248091
1774158605080782800,7.674782958984375,-1.3496885158151388,2.7358476904153823,-0.016083558186143636
1774158605100776000,7.69477587890625,-2.427989947989583,1.33196873472929,-1.3328662680909036
1774158605120770000,7.71477001953125,-2.4362960040420294,-0.8724924438595771,-1.1653647255342452
1774158605140764000,7.734763916015625,-2.8503362393826244,-1.4933154809832572,-0.1001244349848479
1774158605160758000,7.754758056640625,-2.2455460531711577,-1.0265566318899393,0.2916371138565242
1774158605180752100,7.774752197265625,-1.7412381024062633,-0.1510620836049318,0.06467047896161675
1774158605200746000,7.79474609375,-0.9813701672077179,0.7396218505054711,-0.45750257964394986
1774158605220740000,7.814739990234375,-0.7861281656146049,0.8401555238783359,-0.5257077355377375
1774158605240734000,7.83473388671875,-0.6276987681120634,0.04896715226471424,-0.3479009259354323
1774158605260727000,7.85472705078125,-0.13156242423183284,-0.2860392938494682,-0.6584578443173319
1774158605280721000,7.874720947265625,-0.3682277477145195,-0.6537398028194904,-0.6615493805918842
1774158605300715800,7.8947158203125,-0.5328776271671056,-0.6969529216021298,-0.29449111504815517
1774158605320709600,7.914709716796875,-0.39511049394309516,-1.3940817842930555,-0.1182957592304796
1774158605340703500,7.934703369140625,-0.05984042845666408,-1.9147224456995724,0.012289426600188016
1774158605360697600,7.954697509765625,-0.6153115802258253,-2.77072728061676,0.8400279519759118
1774158605380691500,7.97469140625,-0.4979997905313968,-2.549450674057007,0.9082314273692667
1774158605400684500,7.9946845703125,-0.5399357289850711,-1.6844886257022618,0.6419226699061691
1774158605420678700,8.0146787109375,0.06710252841413021,-1.6812790160059927,0.6364157430529594
1774158605440672500,8.034672607421875,0.22762860593497752,-1.4935960514903068,0.677027154904604
1774158605460666600,8.05466650390625,0.36198446941077705,-0.869562820148468,0.8903371664993465
1774158605480660700,8.07466064453125,0.5267576829820871,-0.7020470298707485,1.0895875269509852
1774158605500654600,8.094654541015625,0.7970487880796193,-1.0573661961734295,1.077253676687181
1774158605520648400,8.1146484375,0.7188923662096262,-0.7039660152345896,0.7878105657435953
1774158605540641500,8.1346416015625,0.6478986755758523,0.4478349529147148,0.6469907669506967
1774158605560635600,8.1546357421875,0.3771189101785421,0.6687205143302679,1.208641630268097
1774158605580629500,8.17462939453125,0.37817806384265423,1.1030413211554289,1.1986192718170583
1774158605600623600,8.19462353515625,0.4509878639876842,1.8238947583049534,0.946352337579429
1774158605620617700,8.21461767578125,1.3898901778221129,2.274788514268398,0.8535271927572786
1774158605640611600,8.234611572265624,1.4042214855134487,1.9423942964792251,0.48381972787901756
1774158605660605700,8.254605712890625,0.46119478522539137,2.87363820451498,0.15024331456795334
1774158605680598500,8.2745986328125,0.9924036023974419,3.2735961384892462,-0.7311772627651691
1774158605700592600,8.294592529296875,-0.32238486495018004,2.299707851469517,-0.5565221221268176
1774158605720586500,8.31458642578125,-1.4318541733264922,2.2758652035892006,-1.0306868635624646
1774158605740580600,8.33458056640625,-2.743940980499983,0.13039631219506262,-1.7952682371489703
1774158605760574500,8.354574462890625,-2.34498374800086,-1.2433283282458782,-2.5653648670256137
1774158605780568600,8.374568603515625,-1.882671356922388,-1.6824492288291453,-3.1885119631826875
1774158605800562700,8.394562744140625,-1.188445229935646,-1.232054654559493,-3.1040047109812496
1774158605820555800,8.4145556640625,-0.7580407197713851,0.44219899285435676,-2.503658936958015
1774158605840549600,8.434549560546875,-0.6249497616648674,1.4155945279210804,-1.4340117897517979
1774158605860543500,8.45454345703125,0.04076689467430115,0.820574625095725,-0.6193009421229362
1774158605880537600,8.47453759765625,0.5109843597888947,0.1635375342965126,-0.22867826111838221
1774158605900531500,8.494531494140626,0.6511550470232963,-0.26500235103964803,0.16499679319411514
1774158605920525600,8.514525634765626,0.2255517996609211,-0.5336977113783359,0.6371367508038878
1774158605940519700,8.534519775390624,0.34121640667021275,-1.703039596915245,1.1295048190586268
1774158605960513500,8.554513427734374,0.624653993588686,-1.856199529582262,1.3289936644412577
1774158605980506600,8.574506591796874,0.9420347666412592,-2.5600743594020603,0.7727734478704631
1774158606000500700,8.594500732421874,1.4460761754244564,-3.3299615843117234,0.6693390115547925
1774158606020494600,8.61449462890625,1.8635779493957756,-2.4589964961498976,0.3829079419087618
1774158606040488400,8.634488525390625,1.309635322368145,-1.902602384316921,-0.02290544009543955
1774158606060482600,8.654482666015625,1.2730664639055729,-1.8909131155669687,0.25368805308192965
1774158606080476400,8.674476318359375,1.837912762263417,-1.796823211506009,-0.30933921315521
1774158606100469500,8.694469482421875,1.5691595342576503,-1.40071260060966,-1.0482760040059684
1774158606120463600,8.714463623046875,1.3258598964601755,-1.2722937259674072,-0.35630196679495274
1774158606140457700,8.734457763671875,1.6585715096354483,-0.7244529229462147,0.30598237700797615
1774158606160451600,8.75445166015625,1.828655104574561,-0.1624082380056381,0.6780594205617905
1774158606180445700,8.77444580078125,1.3867021954357623,0.5151157605051994,0.07700659424774348
1774158606200439800,8.794439697265625,1.2763937086321413,0.7699626282334328,-0.9627413815181702
1774158606220433700,8.81443359375,1.3960621444553136,1.5049001203149557,-1.6319721103928981
1774158606240426500,8.834426513671875,2.322965392938256,2.6505092480868098,-2.0213690489947793
1774158606260420600,8.854420654296876,3.0839281376361845,3.1274943076401946,-0.5553109197061509
1774158606280414500,8.87441455078125,0.8867816659748554,4.0971974179297685,0.7893389443546533
1774158606300408300,8.894408203125,-0.5383837868353352,4.884045714512467,0.7653419096302241
1774158606320402400,8.91440234375,-0.2805991851547733,3.949409241428971,-0.918601284083724
1774158606340396300,8.934396240234374,-1.2982739703983068,2.089746419650316,-2.107664792048186
1774158606360390400,8.954390380859374,-1.0030401472240686,-0.14081658392250537,-0.9254979117296636
1774158606380383500,8.974383544921874,-1.1813666698515415,-1.7961738076865672,1.0042866401538253
1774158606400377600,8.994377685546874,-1.4010358412146569,-1.634004639133811,0.5468099986687303
1774158606420371500,9.014371337890625,-2.402681903731823,-0.7629483655571937,-0.6024775253549218
1774158606440365600,9.034365478515625,-2.318983629825711,0.10879589028358459,-0.9471272674746811
1774158606460359700,9.054359619140625,-2.164724211484194,0.3854576994568109,-0.9788163910716772
1774158606480353300,9.074353271484375,-1.5853355930328368,-0.07811199820637703,-0.9134740041978656
1774158606500346400,9.094346435546875,-0.9660901804894209,-0.48317280827760695,-0.5716236104730517
1774158606520340500,9.114340576171875,0.17020692905783652,-0.2777653865009546,-0.0526447813315317
1774158606540334300,9.134334228515625,1.0225953270435333,-0.2895382418811321,0.52800983846765
1774158606560328400,9.154328369140625,0.5424988574713469,-0.8812707935988903,0.8357691254876554
1774158606580322600,9.174322509765625,0.31520693614482875,-0.8057353678822516,1.2774231978103519
1774158606600316400,9.19431640625,-0.08950023818314075,-1.1591150905549525,1.0035795147977769
1774158606620310500,9.214310546875,-0.1536164442628622,-2.6691864760279653,1.0942968006204814
1774158606640303400,9.234303466796876,-0.06944705484681762,-3.8514001180976627,1.366868490935862
1774158606660297500,9.25429736328125,0.08885551053881645,-3.3108319364279506,0.5468330872833729
1774158606680291300,9.274291259765626,0.46631461245715616,-2.3746453112930057,0.39970001369044184
1774158606700285400,9.294285400390624,0.3411222986459732,-1.4695119960695504,0.6400878556944429
1774158606720279600,9.314279541015624,0.46534664420783517,-1.2735399266362188,1.0643601467140018
1774158606740273400,9.3342734375,0.9003191929399966,-0.663412471050024,1.667258527829498
1774158606760267500,9.354267578125,0.7060738011687994,0.5532897160768508,1.0592864967115223
1774158606780260600,9.374260498046874,0.9903419936925172,0.8081903598189354,1.1014812322318552
1774158606800254500,9.39425439453125,1.0019137735426424,0.7146756252974271,1.2776228120356798
1774158606820248300,9.414248291015625,0.7993652483284472,1.7200158661574125,0.808754131181538
1774158606840242400,9.434242431640625,1.3092764259278773,2.827613535442948,0.4517518340975046
1774158606860236300,9.454236328125,1.3295371236681937,3.2232664656996723,0.36571737232878804
1774158606880230400,9.47423046875,0.5959025308787822,3.357622329175472,0.24525544804036617
1774158606900223500,9.494223388671875,1.0954665019869805,3.9668203949570655,0.0008890577942132949
1774158606920217600,9.514217529296875,-0.10940028591752052,4.383469936013221,-0.34525969071164725
1774158606940211500,9.53421142578125,-1.3586264400303363,2.961142300444841,-0.8026067144677043
1774158606960205600,9.55420556640625,-1.9924188488423824,1.5687883628576993,-0.9334836497865616
1774158606980199700,9.57419970703125,-2.0964602380752564,-0.5480851331710815,-1.6463851050183176
1774158607000193300,9.594193359375,-1.4588614227175711,-2.1916075422346593,-3.111547965967655
1774158607020186400,9.614186279296876,-1.0042191278755663,-1.655107048395276,-3.8494513221174476
1774158607040180500,9.634180419921876,-1.1030945126473903,0.41891105624735353,-3.645273734396696
1774158607060174600,9.654174560546876,-0.59258712272048,0.7895020259618759,-2.9081863708049056
1774158607080168400,9.67416845703125,-0.12192651694826781,-0.448563851711154,-1.5424091822370887
1774158607100162600,9.69416259765625,0.2505951285678893,-0.8371224397927522,-0.2612668177731335
1774158607120156400,9.714156494140624,-0.2002198630709201,-0.9804419464468955,0.7428998492628336
1774158607140150500,9.734150634765625,-0.20299035069756208,-2.0453356155157087,0.7772023702286184
1774158607160143400,9.754143310546874,0.109727618175745,-3.1432857510119674,0.706425098824501
1774158607180137500,9.774137451171875,0.3731236665299162,-2.779412691375613,0.787832631444931
1774158607200131300,9.79413134765625,0.5111562092244625,-2.0129116017729043,0.7988526226311922
1774158607220125400,9.81412548828125,0.8463900343537331,-2.0828823790997264,0.8591801039524376
1774158607240119600,9.83411962890625,0.8993874650478363,-2.3922850128799675,0.07483443784043192
1774158607260113400,9.854113525390625,1.545468862068653,-2.569597390028834,-0.4890566056191921
1774158607280106500,9.8741064453125,1.791903290760517,-1.5891273865312336,-0.5089046309053897
1774158607300100400,9.894100341796875,1.7522259448885917,-1.0072364298701286,-0.20517317462936044
1774158607320094500,9.914094482421875,1.6508803706109523,-1.029274074155092,-0.007716711857169866
1774158607340088300,9.93408837890625,1.789327887314558,-1.5527578500330448,0.021190379805862903
1774158607360082200,9.954082275390626,1.394006380969286,-0.885398687183857,-0.2702468275643885
1774158607380076300,9.974076171875,0.34303247964885086,0.046671150282025335,-1.0693404193446039
1774158607400070100,9.994070068359376,-0.006961619173549116,0.40759938863813877,-0.6952861574336886
1774158607420063200,10.014063232421876,0.8278618594944477,1.2729717713594435,-0.4967885150454938
1774158607440057300,10.034057373046876,2.5672727464735505,1.9218822543263434,-0.5902389521591365
1774158607460051200,10.05405126953125,2.5698423047006127,2.939364768400788,-0.16164704437479377
1774158607480045300,10.07404541015625,0.9771780492801219,5.395165683379769,0.42808512730598447
1774158607500039400,10.094039306640624,-0.011598083335161208,4.9875826613545415,-0.37281931328848
1774158607520033300,10.114033203125,-0.9179835175115615,3.631286125576496,-2.2369665870048103
1774158607540026000,10.134026123046874,-1.7503554748415946,1.1631553058564663,-2.374912583927065
1774158607560020200,10.154020263671875,-1.6905670688331127,-0.6808528506726026,-0.5658372821565717
1774158607580014300,10.174014404296875,-1.5162158795773981,-1.4477894090831278,0.43030338787734507
1774158607600008200,10.19400830078125,-2.821856579351425,-0.35975334935784337,-1.0503793329607696
1774158607620002300,10.214002197265625,-3.0823838308036327,1.165026360425353,-1.6138992780856787
1774158607639996400,10.233996337890625,-1.9532079514384268,1.2381295905590057,-0.260960966694355
1774158607659989200,10.2539892578125,-0.636051001393795,0.7625736870259046,0.8408419717725366
1774158607679983400,10.2739833984375,0.3485528139729053,0.23161095356941222,0.6023188276618718
1774158607699977200,10.293977294921875,0.5749707289438695,0.11160919413864612,0.822772573531419
1774158607719971000,10.31397119140625,0.34711949323415753,-0.13966799840927124,0.49741804512068627
1774158607739965200,10.333965087890626,-0.3416402581054717,-2.0761060168325898,0.23212007213532923
1774158607759959300,10.353959228515626,-0.22806991996169088,-2.8305039961874483,0.03333849823921919
1774158607779952400,10.373952392578126,-0.13991473971195517,-3.5263416500240563,0.3723457044273615
1774158607799946200,10.3939462890625,-0.6512590919196606,-3.234933522617817,0.515875638961792
1774158607819940400,10.4139404296875,-1.1039467455625533,-2.5355086579442023,0.31845337072014807
1774158607839934500,10.4339345703125,-0.6210323690254241,-2.2347493493467567,0.9708964117273687
1774158607859928300,10.45392822265625,-0.2604068399429321,-1.706045792993903,1.1368895224824547
1774158607879922200,10.473922119140624,0.3970410966794938,-1.7587860340565442,1.360678696385026
1774158607899915300,10.493915283203124,0.6722516110658645,-1.1535767456501722,0.9291378756672143
1774158607919909000,10.5139091796875,0.31221060387305916,-0.45603637954890724,1.3044563122950494
1774158607939903200,10.5339033203125,-0.305803147983551,0.009900631767511367,1.6405857710897922
1774158607959897300,10.5538974609375,-0.037630350214242936,0.43462592725157734,1.2736904410228131
1774158607979891200,10.57389111328125,0.10151625466942786,0.7424749018490314,0.7215599779836833
1774158607999885300,10.59388525390625,0.09269348126649855,1.0296955144375561,0.8061142841972411
1774158608019878100,10.613878173828125,0.5863958668649196,1.932438719654083,0.7060762853868305
1774158608039872300,10.633872314453125,0.8912601996283978,2.624524327480793,0.6527246344275772
1774158608059866000,10.6538662109375,0.8327005316972732,3.2190286819994447,1.0308854548744857
1774158608079860200,10.673860107421875,0.9149754948019981,3.4975802504420277,0.984341730364412
1774158608099854300,10.693854248046875,1.3254992464542388,3.4661727202653885,0.33771438989862795
1774158608119848200,10.71384814453125,0.07671261626984924,3.078850980502367,-0.5079065597787499
1774158608139842300,10.73384228515625,-2.089372325640917,2.206848950508237,-1.235517946755886
1774158608159835400,10.75383544921875,-2.931625114059448,0.2526736153423786,-1.3624610497571528
1774158608179829200,10.773829345703126,-2.0359996318936346,-2.579774500650167,-1.981402657048404
1774158608199823400,10.7938232421875,-0.5055659149367362,-3.86130834864974,-2.9797952707275748
1774158608219817200,10.813817138671874,0.4561608096461743,-1.5154133310228586,-3.0986294476836918
1774158608239811000,10.83381103515625,0.655343584754318,1.0549772552102803,-3.1029344514012336
1774158608259805200,10.85380517578125,-0.2076560044210404,2.189321477124095,-3.2173958201006054
1774158608279798300,10.87379833984375,-0.26889764144513756,1.8674702806591987,-2.050213742946088
1774158608299792100,10.893792236328125,-0.10857260292172431,0.12961597547233103,-0.7479001417681574
1774158608319786000,10.913785888671875,0.24318222196288405,-0.9485019168287515,0.1760923338346183
1774158608339780000,10.933780029296875,-0.4513292613038793,-1.882393124502897,1.4580284790247677
1774158608359774200,10.953774169921875,-0.01590725177116692,-2.2356191179186102,2.0098393547207114
1774158608379767800,10.973767822265625,0.14249595184419303,-2.7569261342793703,1.8179579156018792
1774158608399761000,10.993760986328125,0.3839350199341774,-3.088231387788057,1.3643753589458762
1774158608419755000,11.013755126953125,0.7206091069996357,-2.4806775820821523,0.14287746197506784
1774158608439749000,11.0337490234375,1.5918576882779598,-2.274997773104906,-0.48496582917422054
1774158608459743000,11.053742919921875,1.5943535967469213,-2.099123904326558,-0.25494112188294527
1774158608479737000,11.073737060546875,1.328658002746105,-1.7972604338794946,0.24082389533370732
1774158608499731000,11.09373095703125,1.0564227778434754,-1.5112749160438774,-0.03300663593634963
1774158608519724000,11.11372412109375,1.2383587231397628,-1.034858011767268,-0.22459669089317322
1774158608539718000,11.1337177734375,1.176397064745426,-0.9523696981728076,0.1249906537592411
1774158608559712000,11.1537119140625,1.9344038822472094,-0.9875386267095804,0.5439674687191843
1774158608579705900,11.173705810546876,1.5971218924164772,-0.32489421742260455,-0.13627704079672692
1774158608599700000,11.193699951171874,0.6646025576174259,0.32350539341270923,-1.0571690661661326
1774158608619693000,11.213693115234374,0.3833060743808746,1.0360153651088475,-1.0430028859086333
1774158608639687200,11.233687255859374,1.502612886160612,1.4117986427694558,-1.339748282689601
1774158608659681000,11.253680908203124,3.135184862142801,2.235502798062563,-1.3270590431168674
1774158608679675100,11.273675048828125,1.5786521697461604,4.986227739614248,0.004966536366194487
1774158608699669200,11.293669189453125,-0.32080552333686496,5.394553688961267,0.7955553346514701
1774158608719662800,11.313662841796875,-1.1661001271367073,3.8910394700467585,-0.9417579955264925
1774158608739656000,11.333656005859375,-0.8880359768848866,1.2269552855938672,-1.8197307704932986
1774158608759650000,11.353650146484375,-0.10665537112355232,-0.7449234640449285,-0.6370056717701256
1774158608779644000,11.373643798828125,-0.8815758409600705,-1.1461328593850135,-0.4437099819391966
1774158608799638000,11.393637939453125,-2.552120770049095,0.13489946883320808,-1.2115353058829903
1774158608819632000,11.413632080078125,-2.6144951008975506,1.620762880244851,-1.753561431276053
1774158608839626000,11.4336259765625,-1.1996189503788948,1.7289549594163893,-1.1179764399588108
1774158608859618800,11.453618896484375,-0.9426244761627167,0.9539280335307121,-0.6878456321693956
1774158608879613000,11.473613037109375,-0.8237550086975097,0.8747486983537673,-0.6211281575500964
1774158608899607000,11.49360693359375,-0.39328393610306084,-2.0063906755715606,0.5969172608792781
1774158608919601000,11.513600830078126,1.4239163660645484,-0.733963678613305,0.023589403771609067
1774158608939595000,11.533594970703126,0.736167837594077,-1.5711580145984887,1.2977742041826248
1774158608959589000,11.553589111328124,0.6383632969241589,-2.301456740963459,0.36203956059888004
1774158608979582000,11.57358203125,-0.8506113053105772,-3.889191796353459,0.3159659378185868
1774158608999576000,11.593576171875,-0.9078012192584574,-3.791249308517575,0.09064531656503677
1774158609019570200,11.613570068359374,-0.8546903182525187,-3.2728543802112338,-0.3016422289118171
1774158609039563800,11.633563720703124,-0.5145112918060273,-3.222982388061285,0.3370496423795819
1774158609059558000,11.653557861328125,-0.45572607149071986,-2.9365485419362782,1.0469941475018858
1774158609079552000,11.673552001953125,0.19171265842318533,-1.8936942707180975,1.3077499470129608
1774158609099545000,11.693545166015625,0.7016600033145397,-0.7196475684911012,0.9235850638456642
1774158609119539000,11.7135390625,0.4275543083649128,-1.0975275261700153,1.5775792798176407
1774158609139533000,11.733532958984375,1.029630632507801,-0.24699323161840436,1.8391387969270347
1774158609159527200,11.753527099609375,-0.2225882736802101,1.4880033460497855,1.075694464546442
1774158609179521000,11.77352099609375,2.049628344273567,1.7302701336681843,0.6581497282162309
1774158609199515100,11.79351513671875,1.0226923576772213,1.504304492509365,0.3119362439110875
1774158609219508000,11.813508056640625,0.6196656107168644,2.452963645726442,0.22199410717934367
1774158609239502000,11.833502197265625,1.214036767309904,2.8286890557199715,0.7553989730909466
1774158609259496000,11.853495849609375,2.639574597096443,2.473910572165251,0.5197556952655316
1774158609279490000,11.873489990234376,1.52337875694409,3.8046804524987934,-0.4196650894850492
1774158609299484700,11.893484619140626,0.8272233423952012,3.789906661736965,-0.29655455038398504
1774158609319477800,11.913477783203126,-0.10121566428765653,2.32001180382967,0.5169789240285754
1774158609339472000,11.933471923828124,-2.079062674681097,1.4287614680081606,-0.48342926725670693
1774158609359465700,11.9534658203125,-2.80269361371994,-0.1223673195183277,-1.1679942703202366
1774158609379459800,11.9734599609375,-0.8688274916112423,-2.703626505768299,-1.9530410704389214
1774158609399454000,11.993453857421875,0.6900339359939098,-1.3827251084983347,-2.982911356921494
1774158609419447800,12.01344775390625,0.26855989739075303,-0.10564181016683578,-3.488292197614908
1774158609439440600,12.033440673828125,0.08956848111376166,0.26055998467803,-3.0815140622317787
1774158609459434800,12.053434814453125,-0.5562367293141782,1.2646914342701434,-0.8989024580098688
1774158609479428900,12.073428955078125,-0.4113363101441413,1.6807646367430686,0.3639816345773637
1774158609499422700,12.093422607421875,0.37251243929639455,0.39523908875882624,0.18512042055130004
1774158609519416800,12.113416748046875,-0.8518059949878602,-0.4062064729750156,0.3800320211462676
1774158609539410000,12.133409912109375,-0.9468330337684601,-1.0458856017380953,1.3176380115598438
1774158609559403800,12.15340380859375,0.8262859154146164,-2.0466338386327028,2.037003402108699
1774158609579398000,12.17339794921875,1.298614746659994,-2.9887305645942686,1.9486923737101256
1774158609599392000,12.19339208984375,-0.043044201089674605,-3.2350539341270923,0.8000771959900855
1774158609619385900,12.2133857421875,-0.0845218652486801,-4.107105648481846,-0.07217939328700304
1774158609639379700,12.233379638671876,0.47562546163797376,-3.905907953354716,-0.12095409171953797
1774158609659372800,12.253372802734376,1.2593261078447102,-2.4867063408523795,-0.06626593145951629
1774158609679367000,12.273366943359376,2.281603454980254,-1.1088105522066354,0.08670330094099045
1774158609699360800,12.29336083984375,1.2684779670715332,-1.0643296054452658,0.07328165544047952
1774158609719355000,12.31335498046875,-0.4109176828732714,-1.8663702104628086,-0.4548645592905581
1774158609739349000,12.333348876953124,1.185951659554243,-1.5764496912658215,-0.13016922544091938
1774158609759342800,12.3533427734375,2.6919097644895316,-0.35413843208551404,0.8389445406533778
1774158609779335700,12.373335693359374,0.7272258947908878,1.123052428048849,1.9119789922103285
1774158609799329800,12.393329833984374,-0.5826776500593871,2.286594687396288,1.6649460131034255
1774158609819324000,12.413323974609375,0.9875684373259543,3.8347950202554464,0.5035713070534169
1774158609839317800,12.43331787109375,3.2576626562982796,4.119861669680476,-0.30615576081350443
1774158609859311900,12.453311767578125,2.347956187940389,4.094456594789028,1.3067504145815967
1774158609879305000,12.473304931640625,-1.2825614374816416,5.718908977201581,1.6329188897237181
1774158609899298800,12.493298828125,-1.5168097538173198,4.080244529563188,0.6698550713181495
1774158609919293000,12.51329296875,-2.0081261210620402,1.8583429713517425,0.06460610848851502
1774158609939287000,12.533287109375,-2.2392928379952908,-0.3312625834107399,-0.46301673995554443
1774158609959280600,12.55328076171875,-2.0628747793376445,-1.481920811265707,-0.6201137928757816
1774158609979274800,12.573274658203125,-1.651751892748475,-0.3772802382200956,-1.0444114375323057
1774158609999267800,12.593267822265625,-2.005618522155285,1.4637719911128282,-1.533347923903167
1774158610019262000,12.613261962890626,-3.4036803159952163,1.8684230513393878,-1.1622772809129207
1774158610039255800,12.633255859375,-3.751922091257572,1.147733864840865,-0.4161273438129574
1774158610059250000,12.65325,-1.7870459138572214,0.16511340531110763,0.07289053723104298
1774158610079243800,12.673243896484376,-0.7917255472302437,-0.6498065550237894,0.20556743464395402
1774158610099238000,12.69323779296875,-0.14883794128205627,-1.2225287013232706,0.11837255079373717
1774158610119230700,12.713230712890624,0.32373737553767856,-1.7055840207010506,-0.44876901889443394
1774158610139224800,12.733224853515624,0.5618745890706778,-2.595665312743187,-0.9090354372285306
1774158610159218700,12.75321875,2.6437352239072323,-3.82356050953567,-1.2063564419403672
1774158610179212800,12.773212890625,1.5566431670337915,-3.9810482422739266,-0.1992984373770654
1774158610199207000,12.79320703125,-0.31843634652011094,-3.6171108852297067,1.323859662553668
1774158610219200800,12.81320068359375,-0.32775947066061195,-3.2544349264234302,1.6596096205115318
1774158610239193900,12.83319384765625,-0.04278049951903522,-2.519867436698079,1.7133737977944314
1774158610259188000,12.85318798828125,0.1410638366818428,-2.291557278239727,1.4233819669269026
1774158610279182000,12.87318212890625,-0.3697165249675512,-1.8340221845656632,1.381033209888637
1774158610299174700,12.893174560546875,-0.04688976146876812,-1.1448416505306958,1.4319582182228565
1774158610319168500,12.91316845703125,0.67437452150397,0.17085165670216082,1.2654933983027934
1774158610339161300,12.933161376953125,0.8782225119441747,1.6048703145861625,0.9436774192817509
1774158610359155500,12.953155517578125,0.13416530933976173,2.6500211723089215,0.41660760161057114
1774158610379149300,12.9731494140625,0.17404373074173926,3.2463650172144174,0.3240985370002687
1774158610399143400,12.993143310546875,1.2349947996646164,4.312894178530573,1.042035794442147
1774158610419137500,13.013137451171875,1.9974410609185695,4.776306639805436,1.4656826470397413
1774158610439131400,13.03313134765625,-0.3264736686337739,4.986594819360971,0.29044249724447724
1774158610459124500,13.05312451171875,-0.7505068171352147,3.5009114406913517,-1.1090174729555844
1774158610479118600,13.07311865234375,-1.7097762116938828,1.869562284502387,-2.264289332085848
1774158610499112400,13.093112548828126,-2.636320563736558,-0.20688333954811094,-2.957216943694651
1774158610519106300,13.113106201171876,-2.2325603148698807,-1.6903794373065233,-3.0524750147521496
1774158610539100400,13.133100341796874,-1.367411219510436,-1.8835265124469995,-2.896674796709418
1774158610559094500,13.153094482421874,-0.8020324217110871,0.25076281328499317,-2.343829171138257
1774158610579087600,13.173087646484374,-0.8156348306059837,1.63212247864902,-0.9605221710987388
1774158610599081500,13.19308154296875,0.06841014041397721,1.1507727941453456,-0.8070600406147539
1774158610619075600,13.21307568359375,0.13291563807222992,0.25865444331765175,-1.1049661517381668
1774158610639069400,13.2330693359375,0.22429803674016147,-0.5824076740115881,-0.5932603458069264
1774158610659063600,13.2530634765625,-0.0679652096580714,-1.5247814633488654,0.06397153691202402
1774158610679056400,13.273056396484375,-0.2680149768590927,-2.401305354681611,0.5356237110048532
1774158610699050500,13.293050537109375,0.060789107483625406,-3.0424732606977223,1.06025125009045
1774158610719044400,13.31304443359375,0.5508001642834395,-3.2120354621112344,1.2525645047552882
1774158610739038500,13.33303857421875,0.9652630820155144,-3.083104546293616,1.0830987494535744
1774158610759032600,13.353032470703125,1.0742086099028587,-2.716765388804674,0.9465541437618434
1774158610779026400,13.3730263671875,0.7642717231154441,-2.3443799368888136,0.691278529227525
1774158610799019500,13.39301953125,0.7455390386600047,-2.1473896303236484,0.2872534919448197
1774158610819013400,13.413013427734375,1.1735837608903645,-1.769375817131996,0.2849576360926032
1774158610839007500,13.433007568359375,1.697041817805171,-1.3717442802786826,0.4845017187938094
1774158610859001300,13.45300146484375,1.363821086063981,-0.8635410756409168,0.5138824193179607
1774158610878995500,13.472995361328126,0.8619774795860051,-0.12971008349657057,0.27639526719152924
1774158610898989300,13.4929892578125,0.48927938152439887,0.6588847644925118,-0.048130701440572736
1774158610918982400,13.512982421875,0.19271343296356497,1.6071657320469617,-0.391262440212816
1774158610938976500,13.5329765625,0.6815502583522349,2.208524774765968,-0.8327508005797862
1774158610958970600,13.552970703125,3.731812784686684,2.613700151127577,-1.1659268163964152
1774158610978964500,13.572964599609374,3.6618262252688405,4.020232251670956,0.2517762281112373
1774158610998958600,13.59295849609375,-1.6783552375137805,4.8388580807864665,0.8190162897378206
1774158611018951400,13.612951416015624,-3.2109242859989404,3.393930490875244,-0.11353563215658068
1774158611038945500,13.632945556640625,-1.7938444879561661,1.6694833642721174,-1.5417366898030043
1774158611058939400,13.652939453125,-1.1563053668964653,-0.28281331754028793,-1.863755497919768
1774158611078933500,13.67293359375,-1.6460229937076567,-0.3059633069813251,-1.7995970601335167
1774158611098927600,13.692927734375,-2.498079967781901,-0.17578326788544654,-1.0579920729868113
1774158611118921500,13.71292138671875,-2.7648405606657267,1.580596289551258,-0.8997011341068893
1774158611138914600,13.73291455078125,-1.9256775549560785,0.8714549175053834,0.049539545325189824
1774158611158908400,13.752908447265625,-0.7018162167895585,1.2138573190897703,-0.3931790874890983
1774158611178902300,13.77290234375,-0.1850005935639143,-0.5439227527946233,-0.534182572285831
1774158611198896400,13.792896484375,-0.494742761496827,-1.288445234823227,-1.0566371512465178
1774158611218890500,13.812890380859375,-0.17228369879927485,-1.5294225671529769,-0.7970842977844178
1774158611238883600,13.832883544921875,0.44593759486079215,-2.363309678286314,0.2820999085739255
1774158611258877400,13.85287744140625,0.22241649730987845,-2.4389175847172737,0.44342911917120215
1774158611278871600,13.87287158203125,0.43314007260799403,-2.640091898968816,0.6210429634846747
1774158611298866000,13.892865966796874,0.24195235137436538,-3.138733494535088,0.46090734658613797
1774158611318860000,13.912860107421874,0.07381218212060629,-3.0292367625057697,0.5584409613601863
1774158611338854100,13.932854248046874,-0.0893067614376545,-2.169565806296468,0.7057625432625413
1774158611358847200,13.95284716796875,0.14084230288565158,-2.2566508000314234,0.8059704918123781
1774158611378841000,13.972841064453124,0.17572072404325007,-1.4002742091923952,0.9839981776237487
1774158611398835200,13.992835205078125,0.47915670450404285,-0.93412560095191,1.0041842026926577
1774158611418829300,14.012829345703125,0.3513864299636334,-0.7230588382393122,1.1864637007296084
1774158611438823000,14.032822998046875,0.5708312910515815,0.013150573474168776,0.9854808173969387
1774158611458817000,14.052817138671875,0.5499059188574552,1.136930146753788,0.8343937454812228
1774158611478810000,14.07281005859375,0.9814894827384502,1.4940531476080416,0.6830288795374333
1774158611498804000,14.092803955078125,0.7104559617757796,2.437653848391771,0.742718062955141
1774158611518798000,14.112798095703125,0.6358803210020065,2.755871072268486,1.0874205581754446
1774158611538792200,14.132792236328125,1.3143167581826447,1.9081705398380755,1.233855420371145
1774158611558786000,14.1527861328125,-0.1467534631581977,2.585076114189625,0.19472835298255084
1774158611578779000,14.17277880859375,-1.1901234653461723,2.8090169715225697,-1.199549684534967
1774158611598773000,14.19277294921875,-1.5476041205316782,1.2503566194474696,-1.6020122948065398
1774158611618767000,14.21276708984375,-1.9874726246118544,0.562234070032835,-1.6076678363502024
1774158611638761000,14.232760986328126,-0.7426707166820764,-0.6754577136307954,-1.7943774257890879
1774158611658755000,14.252755126953126,-1.4985405221551655,0.4598293420910835,-2.502205815540254
1774158611678749200,14.272749267578124,-1.7733184172779322,0.9999363359898328,-2.7043019208118317
1774158611698742300,14.2927421875,-1.1090361045908181,1.7424276044517755,-2.4142101367011666
1774158611718736100,14.312736083984374,0.1681592758130282,2.0510206754148004,-1.5420597842775285
1774158611738730200,14.332730224609374,0.5751905822396278,1.3170610884547234,-0.10280541769713163
1774158611758724000,14.35272412109375,0.44910753013379867,0.3778448863655329,-0.306688990907371
1774158611778718000,14.372718017578125,-0.10181962153017521,-1.8110311850786207,0.025983459301292894
1774158611798711000,14.3927109375,-0.23807693471312522,-3.3585815295964476,0.5165884634062647
1774158611818705200,14.412705078125,-0.24969722988009452,-3.6860920669972894,0.6887111629575491
1774158611838699000,14.432698974609375,-0.49242929692268367,-3.2000024944901466,0.8565732824549078
1774158611858693000,14.452693115234375,0.13837379388026894,-2.607410695594549,0.8798905912868678
1774158611878687200,14.472687255859375,1.7189099507421255,-2.811401820832491,0.7795721680998802
1774158611898681000,14.49268115234375,2.223762675908208,-2.3885166002571583,0.42673415108844637
1774158611918674000,14.512673828125,1.9505448697090149,-1.713927486154437,0.04605550260171294
1774158611938668000,14.53266796875,1.3968845667541026,-1.7750035938858986,0.010207651890069246
1774158611958662100,14.552662109375,0.9776170252192765,-1.8209832547724245,-0.14715192442387343
1774158611978656000,14.572656005859375,1.105398697936535,-1.072439846664667,-0.614511954280734
1774158611998650000,14.592650146484376,1.7755787634253501,-0.32566520179510117,-0.8273857664152979
1774158612018643200,14.612643310546876,1.840122839528322,0.568116113808751,-0.585938186225295
1774158612038637000,14.632636962890626,0.48901218195557594,1.709251895558834,-0.5382311170242726
1774158612058631200,14.652631103515626,-0.3293704129885882,2.5122517009973526,-0.9487225738421082
1774158612078625300,14.672625244140624,1.567775970944762,1.956840754982829,-1.3575802919782698
1774158612098619000,14.692618896484374,4.82266214826703,3.634752924904227,-0.0482749322168529
1774158612118613000,14.712613037109374,1.2123200995851307,5.207832847476006,1.2010521980524063
1774158612138606000,14.732606201171874,-2.4131226337254046,4.9376592312783,0.9725304426699877
1774158612158600200,14.75260009765625,-2.3941665888428685,2.779448347210884,-1.2283603300862014
1774158612178594000,14.772593994140625,-2.045754717710614,-0.2948796029090881,-2.185992332701385
1774158612198588200,14.792588134765625,-2.124070714056492,-1.5430273141354323,-1.5458761276952921
1774158612218582300,14.812582275390625,-2.137436391586065,-1.25899117680192,-0.7131335834871977
1774158612238575000,14.8325751953125,-2.5953438257038592,0.5383125116974115,-0.2515204997844994
1774158612258569000,14.85256884765625,-2.7217069368600844,2.0059435163259507,-0.12383899950608611
1774158612278563000,14.87256298828125,-1.6979758837848902,0.9263380158156156,0.19371961433142423
1774158612298556400,14.892556396484375,-0.3586187923699617,-0.4972568632096052,0.028659838903695344
1774158612318550300,14.91255029296875,-0.6001753858923912,-0.7002063704401255,-0.5033434896469116
1774158612338544400,14.93254443359375,-0.7396966693073511,-1.2107248662829397,-0.8871598516374826
1774158612358537500,14.952537353515625,-0.3142699475556612,-1.9357623111188411,-1.041236606888473
1774158612378531300,14.97253125,0.7519856575161218,-2.3502537973582744,-0.6729631203360855
1774158612398525400,14.992525390625,2.939723080319166,-2.4150866272747513,0.2927582268409431
1774158612418519600,15.01251953125,0.7508709742724895,-2.991534516099095,0.7595784507326782
1774158612438513200,15.03251318359375,0.12712364719994365,-3.34734994148612,0.7868009503096342
1774158612458506200,15.05250634765625,-0.9837351427733898,-2.8984470670789477,0.9146133834913373
1774158612478500400,15.072500244140626,0.04720372278876602,-2.473993574273586,1.59525142236948
1774158612498494500,15.092494384765626,0.43331601369678974,-1.576081442475319,1.9206866148009896
1774158612518488300,15.11248828125,0.32546478385217487,-0.7890718178510665,1.3076150685869157
1774158612538482400,15.132482421875,0.5916512301098555,-0.555171292039752,0.9879511530332267
1774158612558476500,15.1524765625,0.413335228876397,-0.03024257805049419,0.9394069023557007
1774158612578469400,15.172469482421874,0.5770716467458754,0.5469698654055595,0.6657476359993219
1774158612598463200,15.192463134765624,0.3239730839896947,1.7124796254336834,0.30782413241714235
1774158612618457300,15.212457275390625,0.09859298763386905,1.8294617447823285,0.22476094154417514
1774158612638451500,15.232451416015625,0.08072532250992953,2.703760361281037,0.7653031119897962
1774158612658445300,15.2524453125,1.2662538612812757,3.3850440045863386,1.7804563063338399
1774158612678438400,15.2724384765625,2.326540913337469,3.867306127759814,2.603988904452324
1774158612698432500,15.2924326171875,1.1059528246879577,4.310117699554563,1.7272671524599192
1774158612718426400,15.31242626953125,-0.7906370944064111,3.9574826577693223,-0.583377688087523
1774158612738420500,15.33242041015625,-2.057619927549362,1.821004882082343,-2.2922003984488546
1774158612758414600,15.35241455078125,-2.4884692588716746,-0.48969431900084015,-2.5133085165739057
1774158612778408200,15.372408203125,-1.8564742548704147,-1.3981401197731493,-2.683741655603051
1774158612798401300,15.3924013671875,-2.5695821924597024,-2.2567571830153463,-3.4121780952274796
1774158612818395400,15.4123955078125,-2.508270522406697,-0.5592904177963733,-3.327163185764849
1774158612838389500,15.432389404296876,-1.095916583842039,2.151114203804731,-1.9666610149905084
1774158612858383400,15.45238330078125,-0.34203415279388427,2.2436329130262136,-1.1139021031919867
1774158612878377500,15.47237744140625,1.1968419599462299,0.9922457814872264,-0.09536934941224753
1774158612898370600,15.49237060546875,0.411130339243263,-0.30534020664691924,0.21337109413221478
1774158612918364200,15.5123642578125,-0.5463748221218586,-1.3347200792640448,0.4631934116967022
1774158612938358300,15.532358154296874,0.5169401994533837,-2.103454627007246,0.22487097778990864
1774158612958352400,15.552352294921874,0.42191959041357036,-2.2998399534165856,0.1092658458828926
1774158612978346200,15.57234619140625,0.8471744627296924,-2.368950899043679,0.20868775862157343
1774158612998340400,15.59234033203125,0.6767005532987416,-3.036927317008376,0.6414139897316694
1774158613018333400,15.61233349609375,0.9656452132008969,-4.13128673453629,0.8891868274204432
1774158613038327600,15.63232763671875,0.38642259896621106,-3.5706741282254457,0.1010115200176835
1774158613058321400,15.6523212890625,1.2795996650665997,-2.7281793477445837,0.05899769402220845
1774158613078315500,15.6723154296875,1.2875043007113038,-2.1639251700609923,-0.3704679278567433
1774158613098309400,15.692309326171875,1.3996980167396367,-0.9358499405264854,0.7008521209977567
1774158613118302500,15.712302490234375,1.240122810202837,0.5509510439962149,1.571905033573508
1774158613138296300,15.73229638671875,1.3524388374365865,-0.20627894391417503,0.03148892484977841
1774158613158290400,15.75229052734375,0.7641191629022359,0.3967407254934311,-0.8492578448750078
1774158613178284300,15.7722841796875,1.1244096878767014,1.692311866673827,-0.8670129895351827
1774158613198278400,15.7922783203125,1.219935762220621,2.613651051288843,-0.9080053635284304
1774158613218272500,15.8122724609375,2.3664567441403865,2.669389889645576,-1.110372394695878
1774158613238265300,15.832265380859376,2.6328309680551287,3.257775469022989,-0.4321940239295363
1774158613258259200,15.85225927734375,1.6578901032425462,3.867977743411064,1.071603541970998
1774158613278253300,15.87225341796875,-0.8281582120925187,4.418414992666245,0.9745957046367227
1774158613298247700,15.89224755859375,-1.5625954995669424,2.5849755764245987,-1.79579562202394
1774158613318241300,15.9122412109375,-2.513428928083181,1.3008838606357573,-1.0558316800825298
1774158613338234400,15.932234375,-2.5343086345046757,-0.6026847383648157,-1.1504640204571186
1774158613358228500,15.952228515625,-2.2578544767327604,-1.8449474832057953,-0.6076711484752595
1774158613378222600,15.97222265625,-2.060368933996558,-1.7148276498645543,-0.5743649450704456
1774158613398216400,15.992216552734375,-1.8213893513552843,-0.4806172785758972,-0.5436778381228446
1774158613418210600,16.01221044921875,-1.1118832376502454,0.6198065535575151,-0.43564737925380465
1774158613438204400,16.032204345703125,-0.7869744071803987,1.1320984888136387,-0.569935584320873
1774158613458197200,16.052197265625,0.3864784208066761,0.18624913232028484,-0.20108356722816823
1774158613478191400,16.07219140625,0.08427242053225636,-0.8122709071308374,-0.47716889168769117
1774158613498185500,16.092185546875,-0.9179284993886947,-0.6266705941081047,-0.5061661458522081
1774158613518179300,16.112179443359373,-1.4903098694264887,-1.0397247410207986,-1.2079355278253554
1774158613538173400,16.13217333984375,0.34563305406868455,-2.4111031105965375,-0.2620928933337331
1774158613558166500,16.15216650390625,1.9014105441838502,-2.6721049938231705,0.8571155726380646
1774158613578160600,16.17216064453125,-0.17676343802921474,-2.4138316587775943,-0.2651242238536477
1774158613598154500,16.192154541015626,0.9991029539056122,-2.8833541273653505,1.0694089545361698
1774158613618148600,16.212148681640624,0.3017148557566106,-2.61287363717556,2.2126202273860573
1774158613638142500,16.232142578125,0.33945597286894913,-1.5856740312069653,2.5500632529973983
1774158613658136300,16.25213623046875,0.924311040032655,-0.9573965864241123,2.1671927935548125
1774158613678129400,16.27212939453125,0.7744353897333145,-0.10870704295635222,1.1280381075069308
1774158613698123500,16.29212353515625,0.8699602950334548,-0.2608481539696455,0.9028796910777688
1774158613718117400,16.312117431640626,0.5445199880354106,0.03601940788626671,0.9864382642522453
1774158613738111500,16.332111572265624,0.6088567780632526,1.0076502713680267,0.4449145354233682
1774158613758105600,16.352105712890626,-0.4745311635952443,1.5524094749867916,-0.191147279625386
1774158613778098700,16.3720986328125,-0.19079145192503927,1.1185510249763726,0.24674480981528757
1774158613798092300,16.39209228515625,-0.13262392511665821,0.13966215319037437,1.2976847723335028
1774158613818086400,16.41208642578125,0.1876613372057676,0.41796939148306844,2.2530502913214265
1774158613838080500,16.43208056640625,-0.1415554195910692,1.4972376228630542,1.385160518951714
1774158613858074400,16.452074462890625,0.33589550390839573,2.839298128017783,-0.20920959053859114
1774158613878068500,16.472068359375,-0.5749087696235626,3.3421623097151514,-1.5052236531808971
1774158613898061600,16.4920615234375,-1.4666747268170117,2.8240730863571164,-2.0271884027980267
1774158613918055400,16.512055419921875,-1.6892489719718693,1.8177736450761555,-1.9574787606254218
1774158613938049500,16.532049560546874,-1.9145184475600718,-0.15638707801997662,-3.279478182265162
1774158613958043600,16.552043701171876,-1.7423177143365143,-1.0629372743040322,-2.014474905566871
1774158613978037200,16.572037353515626,-0.884089358150959,0.06375263346433639,-2.0224930845886466
1774158613998030300,16.5920302734375,-0.4756101910036057,1.2857079188138245,-2.2738465572431683
1774158614018024400,16.6120244140625,0.3596480623524636,2.112135946112871,-1.482295489796996
1774158614038018600,16.6320185546875,0.23960903965122995,0.8871136744081973,-0.8364959784574806
1774158614058012400,16.652012451171874,-0.7775764642380177,-0.6638888563901185,0.1230039369214326
1774158614078006500,16.672006591796876,-0.4795609744559973,-1.669443032261729,0.8360455312762409
1774158614098000600,16.692000732421874,-0.16389694219343362,-2.650150936168432,0.8755519775606692
1774158614117993500,16.711993408203124,0.3072364687222987,-3.2875445843428373,1.0221282940536738
1774158614137987300,16.7319873046875,0.7045195574641228,-3.3561312138348818,0.8785506479199975
1774158614157981400,16.7519814453125,1.5917799468666314,-2.9662632967203852,-0.014809373531863092
1774158614177975300,16.771975341796875,0.9751789844173937,-2.523321376544237,-0.44664318584688006
1774158614197969400,16.791969482421877,1.1803110963840038,-2.0871704316824675,-0.22021957178749144
1774158614217962500,16.81196240234375,1.918891840338707,-1.6112275746583937,-0.5329531766213477
1774158614237956600,16.83195654296875,1.0871445907782762,-1.5035171415239572,-0.34049649489782746
1774158614257950500,16.851950439453127,1.633373940014839,-1.4752847342520952,-0.2514719844676554
1774158614277944600,16.871944580078125,1.9065385547220706,-1.3695868099838495,-0.25367723942697046
1774158614297939000,16.89193896484375,2.6420097152888773,-0.5827127944380045,-0.7730937658660113
1774158614317932500,16.9119326171875,0.7843832947086542,0.6407084718108177,-0.8230926723312586
1774158614337925600,16.931925537109375,0.1609417456496507,1.7677689664572476,-1.0174526303928344
1774158614357919700,16.951919677734374,1.4413590837746857,2.2907658356010914,-1.3095377072125673
1774158614377913600,16.97191357421875,2.5639234360456467,2.5659645864844323,-0.7604520186968148
1774158614397907700,16.99190771484375,2.9851813476800917,3.243833452910185,0.47841476356294005
1774158614417901800,17.01190185546875,0.4947206227302551,6.042949792665243,2.3309492312990128
1774158614437895000,17.03189501953125,-2.1270646351754663,5.012866740214824,0.8275565198723226
1774158614457888500,17.051888427734376,-0.9573568389356136,1.9199293666929005,-1.9422300458282231
1774158614477882600,17.071882568359374,-3.519015837180614,-0.4505278452605009,-3.2068226958990094
1774158614497876700,17.091876708984376,-2.9303520253837108,-1.90254860830307,-2.559646197117865
1774158614517870600,17.11187060546875,-2.6293641687273976,-1.41872873429358,-0.30274856445221227
1774158614537863700,17.13186376953125,-3.2164684761226177,-0.2926297781556845,1.7911115558609365
1774158614557857800,17.15185791015625,-1.0807716216802596,1.0893494804114103,2.367914980124682
1774158614577851600,17.1718515625,-0.20139058735072612,1.690176608210802,0.9088843383200466
1774158614597845800,17.191845703125,-0.5509516285181045,0.24114742819964885,-0.10248321827175096
1774158614617839900,17.21183984375,2.4360224477976558,0.07231295653879642,0.38983489162772894
1774158614637833700,17.231833740234375,0.29160686484873294,-0.7283563601255416,0.6067719346132129
1774158614657826600,17.25182666015625,-1.1419365767389535,-1.5974550698935985,-0.7333284494496881
1774158614677820700,17.271820556640623,-1.2924199836730956,-3.2242887944847345,-1.2303243236355483
1774158614697814800,17.291814697265625,-0.07487374693751335,-3.4544080481916666,-0.6464509609855711
1774158614717808600,17.31180859375,-0.07666596411652862,-3.4054473256677387,0.46710262102968986
1774158614737802800,17.331802734375,-0.31875439949333667,-2.8480688789725304,0.9426827822212129
1774158614757795800,17.3517958984375,0.38524383751042185,-1.9430396086454391,1.1189698349103332
1774158614777790000,17.3717900390625,0.6013823505293577,-1.3773603665947913,1.4183473337605594
1774158614797783600,17.391783447265624,1.0059586650192738,-1.5370143374562262,1.2719979578912257
1774158614817777700,17.411777587890626,0.4671942448358983,-1.704900714612007,1.147992442711815
1774158614837771800,17.431771728515624,0.5293289947748184,-1.0801304011672734,1.2398003002502023
1774158614857764600,17.4517646484375,0.6733873370975255,-0.29536124894618987,1.4873670939728616
1774158614877758700,17.4717587890625,1.7603408622831105,1.1305886687725781,1.3847288495361805
1774158614897752800,17.4917529296875,0.3986708167731762,1.691651941460371,0.8096831556599586
1774158614917746700,17.51174658203125,0.40946116392202675,2.191799849936366,0.2629874310206622
1774158614937740800,17.53174072265625,2.369671030011773,1.8306816419661045,0.6794738174043595
1774158614957735000,17.55173486328125,1.2852701119184493,1.787136514750123,1.8108596279039977
1774158614977727700,17.571727783203126,0.7459376825887709,2.478911741453409,2.0640994988270105
1774158614997721600,17.5917216796875,0.5890449566015973,2.359756954240799,1.499380041719228
1774158615017715700,17.6117158203125,0.5833558415818959,3.8955098934590815,0.0619731296364218
1774158615037709800,17.631709716796873,-0.7885591921538114,4.009885629701614,-1.8459315258070825
1774158615057703700,17.65170361328125,-1.5488170034527777,1.7714175520926714,-2.2728471709422764
1774158615077696800,17.67169677734375,-1.6223638857007026,-0.7160591886103153,-1.5710329269140957
1774158615097691000,17.69169091796875,-1.1960071896225213,-0.9556061958760023,-1.3211242462404071
1774158615117684500,17.7116845703125,-3.2404058165490626,0.1267167468994856,-2.2288716894850134
1774158615137678600,17.7316787109375,-4.434316910675168,2.1550041969805953,-4.1912917059049
1774158615157672700,17.751672607421874,-4.273741148793697,0.7455611774265766,-3.8082761389032003
1774158615177665800,17.771665771484376,-3.8897488457143305,0.7196937457203865,-1.9595004757113754
1774158615197659600,17.79165966796875,-2.9383021076053377,-0.2885626748472452,-0.8107390213884412
1774158615217653800,17.81165380859375,11.768174528884886,0.5164373644977808,2.756447118590772
1774158615237648000,17.83164794921875,-1.0238906275510788,-2.772750895398855,2.225497390746325
1774158615257641700,17.851641845703124,-1.264300389125943,-2.6998773823678492,1.6947246269039808
1774158615277634600,17.871634521484374,3.1798417499929665,-2.4448650949448347,0.9045463091157376
1774158615297629200,17.891629150390624,5.283033342149853,-1.4046686447590588,0.426583965495415
1774158615317622800,17.911622802734374,-3.1843302935838698,-4.052261713138223,-0.8506237264007329
1774158615337617000,17.931616943359376,-0.9231897809177636,-3.7409938700079914,-1.0260580347180366
1774158615357611000,17.951611083984375,0.3784481860209256,-2.135305224776268,-0.4938850852215662
1774158615377604900,17.97160498046875,1.9871803636670111,-1.7882301552057265,0.11146715531945228
1774158615397598000,17.991597900390627,2.9615391908079385,-1.7476462158828974,-0.38158754349257795
1774158615417592000,18.011592041015625,3.223950356310606,-1.6129004763066768,-0.6819605196535586
1774158615437586200,18.031586181640623,2.021058083349466,-0.7536234878510236,-0.15653127226363867
1774158615457580000,18.051580078125,-0.5832540251752362,-0.1067997480303049,0.06569978547673672
1774158615477574100,18.07157421875,1.376367263904214,1.0879022042125464,-0.5259077881544828
1774158615497567000,18.09156689453125,0.5317500844419002,1.833752135452628,-1.0896690677545964
1774158615517560800,18.111560791015624,0.3363461702853441,2.5580074900001284,-1.395921566940844
1774158615537555000,18.131554931640625,2.951840219092369,2.7897844477862117,-1.1297001224350183
1774158615557549000,18.151549072265624,2.3185236110985277,3.2991444212436676,0.07602814113702624
1774158615577543000,18.17154296875,0.4770972877562046,5.139664735656976,0.7657412111461163
1774158615597536000,18.191535888671876,-1.431905026730895,5.690276172435284,-0.7646065080277621
1774158615617530000,18.211530029296874,-3.262367472988367,3.4052047490835187,-2.421464784004539
1774158615637524200,18.231524169921876,-3.1578304091930387,0.10202128158211707,-1.3656310580953954
1774158615657517800,18.251517822265626,-2.419147885364294,-1.3813327773571014,0.4994837089462206
1774158615677512000,18.271511962890624,-1.9844342798292636,-1.6810270870715378,0.7355889417275786
1774158615697505000,18.291505126953126,-1.6699194176018237,-0.050666941919922825,0.3135802482584491
1774158615717499100,18.3114990234375,-0.7892325613707304,0.8416507308721541,-0.001339993599220179
1774158615737493000,18.331492919921875,-1.4799784450262785,1.269060150873661,-0.1881481526083313
1774158615757487000,18.351487060546877,0.11425297751254401,0.695567020201683,0.3284617737110704
1774158615777481000,18.37148095703125,-0.8691215061217547,0.2712830387443304,0.2240423449460417
1774158615797475000,18.39147509765625,-0.05704172851569019,-1.1600327899217604,1.0464861249145119
1774158615817468000,18.411468017578127,0.016238018095493315,-1.477166894736886,0.23156139707295223
1774158615837462000,18.4314619140625,-0.424706590783596,-2.172777169558406,-0.12749969570441172
1774158615857455900,18.451455810546875,0.04007308545755222,-2.6569132699102163,0.017878171676577768
1774158615877450000,18.471449951171873,-0.46937283098399635,-3.3639772511601445,-0.006670568371680565
1774158615897444000,18.491444091796875,-0.17467501438260077,-3.5950387541532516,0.3278023234216496
1774158615917437200,18.511437255859374,0.0565244723090902,-3.7173049513846634,0.9331102133642881
1774158615937431000,18.53143115234375,0.600914221560955,-3.3756624282568692,1.4037085675552488
1774158615957425200,18.551425048828126,1.2811124077171085,-2.826951272141933,1.6245127342976629
1774158615977419000,18.5714189453125,-0.1731845931617543,-1.3418074071764945,1.961520144970715
1774158615997412900,18.591412841796874,1.7044722600668667,-1.7958914836138486,0.19237912297528237
1774158616017406000,18.611406005859376,1.4238006307303905,-0.04944295308291912,-0.6260046775452792
1774158616037400000,18.631400146484374,-0.500920061892271,1.676854769822955,0.2925087090592831
1774158616057394000,18.651393798828124,-0.7308288877189159,1.8588269554764032,0.8500232032243162
1774158616077388000,18.671387939453126,0.06569448824711144,1.4517191497474908,0.2928975622463971
1774158616097382100,18.691382080078125,0.6092518417954444,2.1627157942712305,0.5018560275681316
1774158616117375000,18.711375,1.2757630095131693,2.580296478697657,0.39039197752121835
1774158616137368800,18.731368896484376,1.6895388948291539,2.4936931309998034,1.0352255299054085
1774158616157363000,18.751363037109375,-0.07567216730620711,3.2460289171278474,1.3369634742766618
1774158616177357000,18.771357177734377,-0.05300152234733104,4.432570943790674,-0.8480226039916277
1774158616197351000,18.791350830078127,-0.67074938980937,3.2327930034577843,-1.421069159939885
1774158616217344000,18.811343994140625,-2.7792759132534264,2.241507591435313,-0.33115378927402195
1774158616237338000,18.831338134765623,-3.158783179873228,0.46882045779824255,-0.3445667765440419
1774158616257332000,18.85133203125,-1.8940934991687535,-1.2275327932208775,-1.3861854780852794
1774158616277326000,18.871326171875,-1.3379969089776276,-1.2234966695725917,-2.5733304390773175
1774158616297320400,18.891320556640625,-1.5591250469774007,0.12347206588983535,-2.1340055403545497
1774158616317313500,18.9113134765625,-0.7837742228996009,1.6328104609131813,-1.7889748360931872
1774158616337307400,18.931307373046874,-1.2490841152936218,1.6785796939194202,-0.9674421065550297
1774158616357301200,18.95130126953125,-0.0350175373673439,1.1185066013127565,0.187611214453727
1774158616377295400,18.97129541015625,0.30146194044146685,0.097998601937294,0.6674800127498806
1774158616397289200,18.991289306640624,-0.5376877308625727,-1.5157564453721046,0.581845144758001
1774158616417282300,19.0112822265625,0.4834931993383914,-2.3041911343634127,0.15725122056864202
1774158616437276400,19.0312763671875,0.09146708127669989,-2.7006337536931038,-0.196723618452996
1774158616457270300,19.051270263671874,0.7768833674073219,-2.9236218403458594,-0.3425105381339788
1774158616477264400,19.071264404296876,0.767172120732069,-3.180086664664745,-0.4039291756927967
1774158616497258500,19.091258544921875,1.1757166812658308,-3.6207162162452935,-0.28897271695286036
1774158616517251300,19.111251220703124,1.298769644960761,-2.9452649323552844,0.27672581432014703
1774158616537245200,19.1312451171875,1.4251415239453316,-2.7151830880492924,0.013677081566303968
1774158616557239300,19.1512392578125,1.7666320713818073,-2.5675696835935113,-0.5402323738440871
1774158616577233400,19.1712333984375,1.9471680867522954,-1.9741694909244774,-0.6797709006547927
1774158616597227300,19.191227294921877,1.738420706897974,-1.3691525102198123,-0.3461927337780595
1774158616617220400,19.211220458984375,0.9435025011062621,-0.41138592143952846,-0.3493630343772471
1774158616637214500,19.23121435546875,0.7905945704389363,0.6684153939038515,-0.6161007578421384
1774158616657208300,19.251208251953123,0.6733171214055269,1.0494774887502192,-0.43911067145019766
1774158616677202400,19.271202392578125,0.529978325529024,1.3360235630780457,-0.010450593800470233
1774158616697196300,19.2911962890625,0.7889134124189615,2.4673498984754083,0.16245580347441135
1774158616717190100,19.311190185546874,2.1821330269247294,3.4395904182881116,0.18455423803590237
1774158616737183200,19.331183349609375,2.834084192761779,3.6958816396057603,0.731205977403
1774158616757177300,19.35117724609375,1.5895494113355875,3.141545044824481,1.416986859062314
1774158616777171500,19.37117138671875,0.5387369476545601,3.2447716105431317,0.5794589072085916
1774158616797165300,19.391165283203126,-0.863169977306202,2.996182634165883,-0.49302397488020355
1774158616817159400,19.411159423828124,-1.9050714047789572,1.9852444271683691,-1.1662236073859036
1774158616837152300,19.43115234375,-3.016917379158735,0.17469255003929138,-1.5154644766882062
1774158616857146400,19.451146484375,-2.7420371927052734,-0.8308177866905927,-1.9067980824410915
1774158616877140200,19.47114013671875,-1.8570353958845138,-0.8528343881875277,-1.8862264190554618
1774158616897134300,19.49113427734375,-2.8115783464431763,1.1155606109887362,-0.4494911956891417
1774158616917128400,19.51112841796875,1.0606769281566142,-0.06544482433497906,0.4895500151593238
1774158616937121300,19.531121337890625,-0.433220115574263,1.0151350741654634,1.951340988522768
1774158616957115400,19.551115478515626,-1.0421592746913433,0.27547990591228005,0.5644623405415564
1774158616977109500,19.571109619140625,-0.384925748004578,-0.928411314958334,-0.17102072965875267
1774158616997103400,19.591103271484375,-0.6035107408601791,-1.4247569085419176,0.06385894338302314
1774158617017097200,19.61109716796875,-0.04529927740693092,-2.4801573576003313,-0.21862930692136287
1774158617037090300,19.63109033203125,0.3303939838826656,-3.1783143942952155,-0.6397000254206359
1774158617057084400,19.65108447265625,0.13137589781694115,-2.99665375880897,-0.4854008595906198
1774158617077078300,19.671078369140623,0.10809446401596069,-3.026011370718479,-0.09165047501958906
1774158617097072400,19.691072265625,0.3739404262728989,-3.2570161750882862,0.20669705972839145
1774158617117066500,19.71106640625,0.2967584023930132,-2.1139088010042903,0.6583200432818382
1774158617137059300,19.731059326171874,0.31791327249407764,-1.274658701533079,0.6380333343174308
1774158617157053200,19.75105322265625,0.27762919290065763,-1.1126549526751042,1.0459827054370194
1774158617177047300,19.77104736328125,0.6540716651223599,-1.0651187099963426,1.3896956781633198
1774158617197041200,19.791041259765624,1.1702310894615948,-0.830716664403677,0.9371477983172982
1774158617217035300,19.81103515625,0.7231804187923669,-0.04509937092065811,0.8731712199039757
1774158617237028400,19.8310283203125,0.6039408759057522,1.1400322044223545,1.9031462819352745
1774158617257022500,19.8510224609375,0.8684275325082242,1.0610831708699464,1.6291186206579207
1774158617277016300,19.871016357421876,0.2908120612092316,1.819958587899804,0.9305544644668697
1774158617297010200,19.89101025390625,0.05900821541622281,1.8589479515075682,0.9664956194851547
1774158617317004300,19.91100439453125,0.6478427076049149,2.40818868445456,0.721436497734487
1774158617336997000,19.9309970703125,0.9531975272990763,2.8226953682631253,1.4145159389041364
1774158617356991000,19.950990966796876,1.3195190030008555,2.5679016920268536,1.2810676917925476
1774158617376985000,19.970985107421875,-0.27992110323011876,3.0598078418582677,0.22987678672056644
1774158617396979200,19.990979248046877,-1.1259775217153132,2.766738503241539,-0.3559690815787762
1774158617416972300,20.01097216796875,-2.411974486603588,0.6047206281065941,-0.6115621280318125
1774158617436966100,20.030966064453125,-2.4273119025975465,-0.9443746077656745,-1.0545025503706187
1774158617456960300,20.050960205078123,-1.910680915223807,-1.2298515915572643,-1.9069468432620167
1774158617476953900,20.070953857421873,-1.4472797059953213,-0.4714139814227819,-2.2550601698391137
1774158617496948000,20.090947998046875,-1.9660114650405942,1.0629729301393032,-1.731572156177461
1774158617516941000,20.110941162109373,-1.5903632119365037,1.932610569089651,-1.5079137690477071
1774158617536935200,20.13093505859375,-0.9575567454218864,1.8397353015154598,-1.7130734996736048
1774158617556929000,20.150928955078125,-0.17510624540671704,1.139082356351614,-1.1478061263594777
1774158617576923100,20.170923095703124,0.09625731122791767,-0.3588461713850498,-0.07767404518052935
1774158617596917200,20.190917236328126,-0.22378639742359518,-1.6850918522924183,-0.0218386054483708
1774158617616910000,20.21091015625,-0.020852964545041323,-2.2333137635856866,0.12719298610910773
1774158617636904000,20.230904052734374,0.6300814254648983,-2.7805519245386123,0.5741591933652759
1774158617656898000,20.25089794921875,0.8800491428494452,-3.0515608225166795,0.6802360339485108
1774158617676892200,20.27089208984375,0.9755798933684825,-3.289126300576329,0.6462757505491376
1774158617696886000,20.290885986328124,1.084171931643039,-2.79702433591187,0.46767676765583455
1774158617716879000,20.310879150390626,0.8548502580545843,-2.229891972443461,0.7696970360998063
1774158617736873200,20.330873291015624,1.2413093896389007,-2.2723931435644626,-0.02413876301636919
1774158617756867000,20.3508671875,1.3664625404834747,-2.0921312689602374,-0.5176380089918151
1774158617776861200,20.370861083984376,1.4915303511321545,-1.680189467203617,-0.7515719621486961
1774158617796855300,20.390855224609375,1.3413235691823064,-1.2748393187969922,-0.41475861274302006
1774158617816848100,20.41084814453125,1.4576229669637977,-0.48322716881334776,0.011411712183896451
1774158617836842000,20.430842041015627,1.2071547527112065,0.7781096943318844,0.22859166054716332
1774158617856836000,20.450836181640625,0.8150221055351198,1.4169617246210575,0.011183365054428577
1774158617876830200,20.470830322265623,0.5386667319625615,2.425202947619557,-0.10181397724067792
1774158617896824000,20.490823974609373,1.0004776032596825,3.5002965236634016,-0.3733013246517628
1774158617916817200,20.510817138671875,2.222861781545728,4.689553069981932,0.30156803116444497
1774158617936811300,20.530811279296874,0.5656063229449093,6.214661865589022,2.4300813673108816
1774158617956804900,20.550804931640624,-1.6015356172055004,4.69878968488276,2.740894744671881
1774158617976799000,20.570799072265626,-2.4861568902760744,3.372379753324389,0.040991095351614056
1774158617996793000,20.59079296875,-2.1072417443305254,0.704078827959299,-1.2267711611986158
1774158618016786200,20.6107861328125,-2.7349761682778597,-1.4963438888937235,-1.0371653388615698
1774158618036780000,20.630780029296876,-3.455083755496144,-1.1983616437941789,-1.237741906415671
1774158618056774100,20.650774169921874,-1.878742639171332,-1.2069342418283224,-1.8254913798466323
1774158618076768300,20.670768310546876,-2.943639961501956,0.7468167304456234,-0.521162602921389
1774158618096762000,20.69076220703125,-1.7203998970389365,0.8471563425511122,0.1964008527720347
1774158618116755000,20.7107548828125,-0.03835471896603703,0.2432055297732353,0.42238183763045817
1774158618136749000,20.7307490234375,1.3846287501625716,-0.7665390835255383,-0.36400026621259746
1774158618156743200,20.7507431640625,-0.024688889446109533,-1.3757137684315441,-0.2649305279124528
1774158618176737000,20.770737060546875,-0.7014262676239014,-1.543641062119603,-0.09721526953987776
1774158618196731100,20.790731201171877,-0.25490999609231946,-2.1190315508455035,-0.340391317490302
1774158618216724200,20.81072412109375,0.20555662098899483,-3.081495357531309,0.04674814277468249
1774158618236718000,20.830718017578125,0.018743278914690017,-2.90560453761816,0.1255717141833622
1774158618256712200,20.850712158203127,0.442705773332715,-3.316014307501912,0.29745966426385567
1774158618276706000,20.8707060546875,0.2399662555910647,-2.590963418662548,0.37659506896752865
1774158618296699600,20.89069970703125,0.21968319988846777,-2.000925980424881,0.6023630321297794
1774158618316692700,20.910692626953125,0.5979045183509588,-1.7383195846110582,0.8388030863560736
1774158618336686800,20.930686767578123,0.5410721856690943,-1.532483123767376,1.2626781947515904
1774158618356681000,20.950680908203125,-2.0608003111511466,0.8881862720757723,1.87662024018988
1774158618376674800,20.9706748046875,2.918549359387159,-2.112535174563527,1.635185811742395
1774158618396668000,20.99066796875,0.33058059249594807,-0.6966898867517709,0.9428921141229569
1774158618416661800,21.010661865234376,0.33280981285274025,1.0055483306527138,1.0520665553953499
1774158618436655900,21.03065576171875,-0.7776695493489504,2.6725229269742963,0.6429369615152478
1774158618456649700,21.050649658203124,1.5980005749471484,1.1177098979771136,0.8567568223282694
1774158618476643800,21.070643798828126,-0.16662717087492346,2.515176064011454,1.1077627967193722
1774158618496637000,21.090636962890624,1.0417920488141477,2.287042431163788,1.6701878592796622
1774158618516630800,21.110630859375,0.49254269416928287,3.4238913293749094,1.280467972333729
1774158618536625000,21.130625,-0.34552959369421005,3.0206244169831273,0.8875536732606589
1774158618556619000,21.150618896484374,-3.073060122141242,2.442965398803353,-0.07237109820051119
1774158618576612900,21.17061279296875,-2.9925983459383247,2.2301468239873645,-0.9990414329767227
1774158618596605700,21.190605712890626,-1.6010745755650102,-0.28127134879529475,-2.0424492464244364
1774158618616599800,21.210599853515625,0.100160163885355,-0.8906564615815877,-2.3142602545656263
1774158618636594000,21.230593994140627,-0.6203438753046095,0.1900549543440342,-2.389731382874399
1774158618656587800,21.250587890625,-1.2734287213467061,0.5387140782356262,-1.8395484006412326
1774158618676582000,21.270581787109375,-1.0576016123645007,0.8110287981152534,-2.406512275674939
1774158618696575000,21.290574951171877,-0.28384017636999487,0.7879284930348396,-2.4071155022650954
1774158618716568800,21.31056884765625,-0.0693511841237545,0.480337877112627,-1.255422232273966
1774158618736562700,21.330562744140625,-0.52151159902215,-0.26516192551553247,-0.3873472760630771
1774158618756556800,21.350556884765624,-0.47719899456501,-1.182225332507491,0.21086871938984839
1774158618776550700,21.370550537109374,-0.056176060730218885,-2.06383456428051,0.7064363508708774
1774158618796543700,21.390543701171875,0.6529506982684135,-3.152157039731741,0.8028837778434157
1774158618816537900,21.410537841796874,0.948204395186901,-3.7990877470582722,0.6145739136010409
1774158618836532000,21.430531982421876,1.0448341199237852,-3.5985055534809827,0.35182759785987433
1774158618856525800,21.45052587890625,0.7975637518644333,-3.0002661040872334,0.10480678411480039
1774158618876520000,21.47052001953125,1.0724123741358518,-2.6696494173645973,-0.21024317137002943
1774158618896512800,21.4905126953125,1.5616712243288755,-2.244678038164973,-0.5626898875089362
1774158618916507000,21.5105068359375,1.5873013401478528,-1.8041794194877148,-0.7299284317478537
1774158618936500700,21.530500732421874,1.2472633296072482,-1.6527578549206257,-0.40275238699838517
1774158618956494800,21.550494873046876,1.2973247068494558,-1.093628180643916,0.05130860082432628
1774158618976488000,21.570488037109374,1.6656791496835648,-0.05780395419299602,0.4535095644850284
1774158618996481800,21.590481689453124,1.1580278798401356,0.917437501001358,0.4925556632487103
1774158619016476000,21.610475830078126,0.33888197237327694,1.8354226990133522,0.09544095334373413
1774158619036470000,21.630469970703125,0.8716530704259872,2.8048580982774496,-0.6259244519159197
1774158619056464000,21.6504638671875,2.0351701953321695,3.376492449340224,-1.2134813253842294
1774158619076456700,21.670456787109377,3.151604082024097,3.70050696131885,-0.3342838674606755
1774158619096450800,21.690450927734375,1.3008353453189134,4.418751677274703,2.344810729521513
1774158619116445000,21.71044482421875,-0.1601269221354276,4.243333151048422,2.69775936730057
1774158619136438800,21.730438720703123,-1.5177631090193986,3.043918783330917,0.10593107543699443
1774158619156433000,21.750432861328125,-2.3992414078891278,0.4032312565565109,-2.6700699808642265
1774158619176426000,21.770426025390623,-3.0866853273898363,-2.077211932247877,-3.4000393291443585
1774158619196419800,21.790419921875,-3.0814310601234434,-1.7136621132165193,-1.7333862198621033
1774158619216413700,21.81041357421875,-2.747938525703549,-0.21096154877245424,-0.12786051010712982
1774158619236407800,21.83040771484375,-2.1467735442519187,1.5136077429056167,0.7773466010048985
1774158619256401700,21.850401611328124,-1.2223732915658503,1.374731187134981,1.3344963535107672
1774158619276394800,21.870394775390626,-0.13293131056539714,0.40026948414146896,1.381501850313693
1774158619296389000,21.89038916015625,0.15816234406419097,0.10030629435777663,0.3563025878494605
1774158619316383200,21.91038330078125,-0.25294490656442936,-0.3374135072559118,-0.7120105708066373
1774158619336377000,21.930377197265624,-0.4539309317022562,-1.006771150445938,-1.2590446605548262
1774158619356371200,21.95037109375,-0.3862899855624884,-1.5568500877827405,-0.9595080256201326
1774158619376364300,21.9703642578125,0.23070669820606707,-2.173643430998921,-0.26180434044962747
1774158619396358100,21.990358154296874,0.7200992577813565,-2.6994962740957735,0.25534767512353135
1774158619416352000,22.01035205078125,0.843406050106883,-3.0272955653101206,0.4097538267256692
1774158619436346000,22.03034619140625,0.3657726096473634,-3.015419834077358,0.5275265484627336
1774158619456339200,22.050339111328125,0.19866335434392093,-2.806601142552495,0.6460739443667233
1774158619476333000,22.0703330078125,0.27541677754819394,-2.482982936415076,0.682383786566928
1774158619496327200,22.0903271484375,0.6357074486531317,-1.9182734161794184,1.0046520394001155
1774158619516321300,22.1103212890625,1.0762784019142388,-1.4194874437063931,1.2207514625176787
1774158619536315100,22.130315185546873,0.9318323754481971,-0.7238467737466097,1.2054649729933589
1774158619556308000,22.150307861328123,0.2753331909179687,-0.21789397838413713,1.0081069290943443
1774158619576302000,22.170302001953125,0.5580757813096046,0.4876870708316564,0.8818631334688514
1774158619596296200,22.190296142578124,0.059204322510212654,1.4464870943129062,0.7500024478096514
1774158619616290000,22.2102900390625,-0.05420790246240794,2.0525129597991705,0.7251798489812761
1774158619636284200,22.2302841796875,0.47166664100959893,2.6252391977518794,1.5454194699689745
1774158619656277200,22.25027734375,1.8656150081813334,3.307076967808604,2.5444693785130976
1774158619676271000,22.27027099609375,1.398368083310127,3.407861985594034,2.038393979684263
1774158619696265200,22.29026513671875,-0.05207147495560348,4.054568236514926,0.40341925340928136
1774158619716259300,22.31025927734375,-1.0979524735838173,3.6553567369937894,-1.4225311953164637
1774158619736253000,22.3302529296875,-3.0563743602782485,0.9996393988698721,-2.13099744457975
1774158619756246000,22.35024609375,-3.0428514463603493,-0.8510445821613073,-2.034475783327222
1774158619776240000,22.370240234375,-2.258263495925069,-1.295837683162093,-2.3031366568744183
1774158619796234200,22.390234130859376,-2.0312568212807176,-0.06533142708837986,-2.7442893555462358
1774158619816228000,22.41022802734375,-1.3517875339210033,1.8260241715490817,-2.9301164630621668
1774158619836221200,22.43022119140625,-0.6347106927007437,2.633372819846868,-2.0726587989881633
1774158619856215300,22.45021533203125,-0.41885852234251797,0.7661305027246474,-0.7701350621908902
1774158619876209000,22.470208984375,-0.34760413494594394,0.18299860609173774,-0.4709601732406765
1774158619896203000,22.490203125,-0.4382358613770455,-0.6196043089836836,-0.06888250716608017
1774158619916197000,22.510197021484377,-0.3552520193506032,-1.7673007644236087,0.28913346047252414
1774158619936190200,22.530190185546875,-0.14753909711055457,-3.004367694187164,0.41766226176265625
1774158619956184000,22.55018408203125,0.3418547045737505,-3.596214812195301,0.5095492854844779
1774158619976178200,22.57017822265625,0.6468420061297714,-3.7760844726115463,0.8218528283379971
1774158619996172300,22.59017236328125,1.164625378409028,-3.6740082459717986,0.7689679181076586
1774158620016166100,22.610166259765624,1.2916734030894934,-2.9536124894618987,0.35957328008320183
1774158620036159000,22.630158935546874,1.637740318530798,-2.1594319502949713,0.22663305555898694
1774158620056153000,22.650153076171875,1.9046696921102702,-1.7849129934817551,-0.3662214128607884
1774158620076147200,22.670147216796874,1.3483319866396486,-1.6740204231798648,-1.2165641668956726
1774158620096141000,22.69014111328125,1.4084277050316334,-1.142588318645954,-1.3266235743090509
1774158620116135200,22.71013525390625,1.7294062103152275,-0.5271399602979421,-0.6782604960918426
1774158620136128300,22.730128173828124,1.5166168615937232,0.5161965414792299,-0.1234724312160164
1774158620156122000,22.7501220703125,0.8919557076118886,1.3526409358799456,0.15597995852380991
1774158620176116200,22.7701162109375,0.4867215868003666,1.6978256616592406,0.006051993515342474
1774158620196110300,22.7901103515625,0.7353412505768239,2.0053543182611464,-0.5886002815740182
1774158620216104000,22.81010400390625,1.2965069607257842,3.164532537180185,-0.6501026153609156
1774158620236097000,22.830096923828126,2.905565959173441,4.4467157889991995,0.7454542829860001
1774158620256091100,22.850091064453125,1.716380578394979,4.646477313843369,2.3873292901687324
1774158620276085200,22.870085205078126,0.7522833252884447,4.680080892759562,2.7022227764502165
1774158620296079000,22.8900791015625,-1.042789973810315,3.8011832580327987,0.014170564171671866
1774158620316073200,22.9100732421875,-1.9697557661354541,2.0707745926767585,-2.569384624060988
1774158620336066300,22.93006640625,-2.6054279973447323,-0.2394154898405075,-3.0869141677096485
1774158620356060000,22.950059814453127,-3.032171646913886,-2.0936714841395614,-1.4802636917084455
1774158620376054000,22.970053955078125,-2.8171950172811746,-2.2991274212330577,-0.5068092660613358
1774158620396048100,22.990048095703123,-2.4068249948859215,-0.8798281935751437,-0.010833090312033892
1774158620416042000,23.0100419921875,-0.5917069788850844,0.4204904343932867,0.3505223970128223
1774158620436035000,23.03003515625,-0.16374379745833575,0.9094768973857164,-0.6186864634864032
1774158620456029200,23.050029296875,-0.5364805470298976,-0.35156828933656215,-0.8731167132377624
1774158620476023300,23.070023193359376,-0.5416933863073587,-0.8427578153312206,-0.0012052110712975263
1774158620496017200,23.09001708984375,-0.44443011290729045,-1.5779542506098747,-0.18675693571195004
1774158620516011300,23.11001123046875,-0.33947906148359175,-2.110835969430208,-0.6098333680104464
1774158620536004000,23.130004150390626,0.1622575044233352,-2.393198036071658,-0.27149131120014935
1774158620555998200,23.149998291015624,0.31881445911750195,-2.7235879283010958,-0.08875088112056255
1774158620575992000,23.169991943359374,0.48448505991995333,-2.573698395606875,0.1467215884489007
1774158620595986200,23.189986083984376,0.9304355142623185,-3.129640087497234,2.4343466235399243
1774158620615979300,23.209979248046874,-0.18883388811647892,-2.5175761108905075,0.6105323100600392
1774158620635973000,23.22997314453125,0.6562948941297829,-1.7691899391710757,0.015109014065563678
1774158620655967200,23.24996728515625,0.11309344134703278,-1.3995067319512366,-0.2928124777788296
1774158620675961300,23.26996142578125,0.21612068510130047,-1.1540373488992453,-0.1906510936062783
1774158620695955000,23.289954833984375,0.5934620058588683,-0.5398550649642944,1.0452645472303033
1774158620715948000,23.309947998046876,1.180084228825569,0.6538041002273559,2.038427443562448
1774158620735942100,23.329942138671875,0.9387534068830311,0.21861294030845163,1.1379638006504624
1774158620755936300,23.349936279296877,0.8551597623951732,1.3783499621540307,1.835354602213204
1774158620775930000,23.36993017578125,0.8900872833915054,2.1260370456933972,1.5537668809451162
1774158620795924200,23.38992431640625,-0.782044549562782,0.21945874348282812,-0.6587737783987074
1774158620815917300,23.409917236328123,-0.322415698479861,3.1965099761992692,1.8468273056030273
1774158620835911000,23.429910888671873,-0.07448314018473029,3.3834400765210386,2.933186079765856
1774158620855905000,23.449905029296875,0.382619991812855,3.180195385736227,0.9759253458052873
1774158620875899100,23.469899169921874,0.9359142379343509,3.825539700654149,0.41602899800501764
1774158620895893000,23.48989306640625,-0.27273557564020157,3.3624610013782976,-0.3251610881978646
1774158620915886000,23.509885986328126,-1.9778379503041505,1.4135089538186787,-1.24537167064175
1774158620935880200,23.529880126953124,-1.5736794959001241,-0.5146984118759632,-2.947565902774036
1774158620955874300,23.549874267578126,-1.1282716240018607,-1.8104501703202724,-3.3455504908487197
1774158620975868200,23.5698681640625,-1.6046030419521033,-1.6636919213891028,-3.62014455383718
1774158620995862300,23.5898623046875,-1.327280284652114,0.6055220076173543,-3.6624466952547428
1774158621015855000,23.609855224609376,0.4792969897575676,2.201478947907686,-3.238699889414012
1774158621035849200,23.62984912109375,-0.03021934330537915,1.3575795613259076,-1.4114540671154856
1774158621055843000,23.649843017578124,-0.11572992733046412,-0.07866963208913802,-0.41265776800625026
1774158621075837200,23.669837158203126,0.717939595529437,-0.9117565327554941,0.27078805830162017
1774158621095831000,23.6898310546875,0.6305120719671249,-2.1724977680951354,0.8434542731627821
1774158621115824000,23.70982421875,0.5328003241471946,-2.1810551685601474,1.4451041155219078
1774158621135818200,23.729818359375,0.5325492719955742,-2.8993595057487487,1.187806493640691
1774158621155812000,23.74981201171875,0.7557301047414541,-2.9360516983300444,-0.40920086901802566
1774158621175806000,23.769805908203125,0.6487946015022694,-2.834946947070956,-1.6137588467016815
1774158621195799000,23.789799072265627,1.1141351082302628,-2.5852888801574707,-1.0777720745380968
1774158621215793200,23.809793212890625,1.5781461199201643,-1.9434364990085362,-0.15313515441878697
1774158621235787300,23.829787353515623,1.4077853154748678,-1.3049942185640335,0.21515790448375044
1774158621255781000,23.849781005859374,1.799190671289712,-1.2421692213386297,0.5039036442803219
1774158621275775200,23.869775146484375,1.7499517163462937,-0.6897270620018243,0.6672052874617278
1774158621295768000,23.88976806640625,1.7264315784186124,-0.22986381764113903,0.5145582727529108
1774158621315762000,23.909761962890624,1.590060867989063,-0.17517536512017248,0.10521490825796499
1774158621335756000,23.929756103515626,1.256999126201868,0.09372165527045727,0.29237784922122956
1774158621355750100,23.949750244140624,0.5799440603770315,0.7998889799416065,0.1768164833907038
1774158621375744000,23.969743896484374,0.5021272457249463,2.315254380169511,-0.6074457422215491
1774158621395737000,23.989737060546876,2.3001048879630863,3.866498903030157,-0.7218310500100255
1774158621415731200,24.009731201171874,2.38213537478745,4.313719523438811,1.1902094631291926
1774158621435725300,24.029725341796876,-0.8080470058254897,4.387852681142092,2.2348871503822503
1774158621455719000,24.049718994140626,-1.278497695174068,4.479093040990829,1.3472040055230259
1774158621475713000,24.069713134765625,-1.2427742014944552,2.714144977173209,-0.5546567666463553
1774158621495706000,24.0897060546875,-2.2548592404395342,-0.13643559235930441,-1.9727166617676615
1774158621515700200,24.1097001953125,-1.9358622643619774,-1.3421996213644742,-1.52086122116521
1774158621535694000,24.129694091796875,-1.4532254626572132,-1.9679267971426246,-1.5688856857523321
1774158621555688200,24.149688232421877,-2.3066087168991563,-0.5512532418131828,-1.8378205539353192
1774158621575682000,24.16968212890625,-2.9357325493782755,1.1002905611425637,-1.1568491183843463
1774158621595675000,24.1896748046875,-2.0857190638303758,1.7518582806199787,-0.08037446324564516
1774158621615669000,24.2096689453125,0.2100923647224903,0.9340022668331861,-0.5361240617424249
1774158621635663000,24.2296630859375,0.41792102229669686,-0.2059738234877586,-0.10885960316956042
1774158621655657000,24.249656982421875,-0.19943609228208659,-1.3339876733362674,0.1593297073431313
1774158621675651000,24.269651123046874,0.34405542948842044,-2.1949305491775273,-0.17474778735786675
1774158621695644200,24.28964404296875,0.29824133442714806,-2.6236545589089393,-0.14382661592606455
1774158621715638300,24.30963818359375,0.09747253223657608,-2.9212153637260196,-0.1921897013504058
1774158621735632100,24.329632080078124,0.40383229118958114,-3.0485154634714124,-0.05764637074479833
1774158621755626200,24.349626220703126,0.03751110774874687,-3.057206134927273,-0.2227573283704929
1774158621775619000,24.369619140625,-0.04323299252688884,-2.8564702120929955,-0.08379614479001611
1774158621795613000,24.389613037109374,-0.01040858128964901,-2.528289228084683,0.330229842829518
1774158621815607000,24.40960693359375,0.2767455419339239,-2.0027432589799163,0.86567984123528
1774158621835601200,24.42960107421875,0.5529752433001994,-1.5878016908854244,1.4631592660419641
1774158621855595000,24.449594970703124,0.7068938853800296,-0.9002525574445724,1.3521172042667864
1774158621875589000,24.469589111328126,0.616210136500746,-0.35644846259355545,1.2044362875327468
1774158621895582200,24.489582275390624,0.40808395728468894,-0.16403203981518744,1.2533423572599887
1774158621915576000,24.509576171875,0.12303908130005001,0.5353986700773239,1.1410426235739142
1774158621935570000,24.52956982421875,-0.04853402154445648,1.5865040522903202,0.7460450884860008
1774158621955564000,24.54956396484375,-0.27259587490856646,2.3668612332880494,0.7038735146455466
1774158621975557000,24.56955712890625,-0.10226575786247849,2.90879368904829,1.3729597935482858
1774158621995551200,24.58955126953125,0.6545617867268622,3.3168846605956555,1.8658258744530378
1774158622015545000,24.609545166015625,-0.09619257542863488,4.6316450708925725,1.2573701514713465
1774158622035539200,24.629539306640623,0.09945245400741695,4.69321159248948,0.21373802774846554
1774158622055533000,24.649532958984373,-0.9874538710355758,3.5217835483282802,-1.0701304737437516
1774158622075526000,24.66952587890625,-1.4312626371741295,1.6571517059653997,-1.0652337146781383
1774158622095520000,24.68952001953125,-1.7325794335238633,-0.4987544082909822,-1.8655574327751994
1774158622115514000,24.70951416015625,-1.6391114607535302,-1.7127736399441957,-3.7621316428437828
1774158622135508000,24.729508056640626,-1.284399758824706,-0.4405202459871769,-4.992008661103248
1774158622155502000,24.749502197265624,0.26549787947162984,1.370335582524538,-5.074655380129814
1774158622175495200,24.7694951171875,0.19903671770095824,2.701309460997581,-1.399559192790836
1774158622195489300,24.7894892578125,0.29502821759954095,0.5599719703197479,0.9772418352313339
1774158622215483100,24.809483154296874,0.16967384509444236,-0.8229933766752481,0.36548418462742116
1774158622235477200,24.829477294921876,-0.18279738443121313,-1.402398946261406,-0.6486854420393705
1774158622255471000,24.84947119140625,0.3675857965491712,-2.5783237173199653,-0.42319651501420885
1774158622275464000,24.8694638671875,1.1206390832968056,-3.264070185253024,0.008001287252479233
1774158622295458000,24.8894580078125,0.9868132350444793,-3.248642899018526,0.12340798767767845
1774158622315452200,24.9094521484375,1.074343196067959,-3.335024128398299,0.13824382909135893
1774158622335446000,24.929446044921875,1.4005609171792863,-3.371353917407989,0.2879679968897253
1774158622355439000,24.949439208984376,1.3724331393256783,-2.895256162083149,0.30451467907559127
1774158622375433200,24.96943310546875,1.6286495418414473,-1.915019967341423,0.36043292911984026
1774158622395427000,24.989427001953125,1.923225777889788,-1.5063883130460978,0.263731819647178
