time,seconds_elapsed,z,y,x
1774158597463090700,0.057090576171875,-8.890413691481948,-4.119894402906298,-0.3967266969680786
1774158597483084800,0.077084716796875,-8.84773657927215,-4.2073239722952245,-0.4316956824859604
1774158597503078700,0.09707861328125,-8.818800407645107,-4.266843498234451,-0.43953240399360655
1774158597523072800,0.11707275390625,-8.807299939465523,-4.291399847342074,-0.4309779992032796
1774158597543066600,0.137066650390625,-8.807102371066808,-4.29284244736582,-0.42051984315086155
1774158597563060700,0.157060791015625,-8.808955305457115,-4.289817254325747,-0.41250520779304206
1774158597583054800,0.177054931640625,-8.802782754302024,-4.302936848139763,-0.4075956257784739
1774158597603048700,0.197048583984375,-8.78995951308608,-4.330043173991143,-0.39714342454280704
1774158597623042800,0.217042724609375,-8.786222664645313,-4.339204677829146,-0.37943551655784247
1774158597643037000,0.237036865234375,-8.800641066098212,-4.311761667369306,-0.3575101004756987
1774158597663030800,0.25703076171875,-8.827404569861292,-4.257195379923284,-0.3515665723035112
1774158597683024600,0.277024658203125,-8.855803565871716,-4.198456482967734,-0.34364319542571903
1774158597703018800,0.297018798828125,-8.875826363202929,-4.158030656816065,-0.3176070560891181
1774158597723012600,0.3170126953125,-8.885943268069624,-4.137991200610995,-0.29567506413571537
1774158597743006700,0.3370068359375,-8.891406794172525,-4.126880316270888,-0.28657992179850117
1774158597763000800,0.357000732421875,-8.902385868826508,-4.103783810582756,-0.27724284219788387
1774158597782994700,0.37699462890625,-8.921769199210404,-4.06185196378231,-0.2716150471776724
1774158597802988800,0.39698876953125,-8.942942335620522,-4.014398723211884,-0.28066677049826827
1774158597822983000,0.41698291015625,-8.957783930921554,-3.9801244054272766,-0.29513407086050136
1774158597842976800,0.436976806640625,-8.959019610196352,-3.9772736921712752,-0.29605580708160995
1774158597862971000,0.456970947265625,-8.948080283030867,-4.000416667349636,-0.31448932592738416
1774158597882964700,0.47696484375,-8.926468170681595,-4.045091967639327,-0.35465507637076077
1774158597902958800,0.496958740234375,-8.897077825546264,-4.104534921211004,-0.40642344019394366
1774158597922952700,0.51695263671875,-8.86603328346312,-4.166967704248428,-0.44745669418685136
1774158597942946600,0.536946533203125,-8.835265220233797,-4.228288434390723,-0.4796378756171092
1774158597962940700,0.556940673828125,-8.808748384708165,-4.282098935033381,-0.4898638303488493
1774158597982934800,0.576934814453125,-8.806264166676998,-4.286632779070735,-0.49485257854685183
1774158598002928600,0.5969287109375,-8.831477518388628,-4.230075902329385,-0.5308892663614824
1774158598022922800,0.6169228515625,-8.864418249481917,-4.152476822081208,-0.5911123739928007
1774158598042916900,0.636916748046875,-8.898743712931871,-4.068414098776877,-0.6563165945049375
1774158598062910700,0.65691064453125,-8.925539365398883,-3.996851668344438,-0.7282216278299689
1774158598082904800,0.67690478515625,-8.928128797370196,-3.9634652393102643,-0.8659348389096557
1774158598102899000,0.69689892578125,-8.888400013571976,-3.993565194019675,-1.103705045761168
1774158598122892800,0.716892822265625,-8.794512938606738,-4.089884756828845,-1.4490566525399684
1774158598142887000,0.736886962890625,-8.638087282142042,-4.258277914462983,-1.8495688593961297
1774158598162880800,0.756880859375,-8.458840722060202,-4.446917741312086,-2.2007541407644746
1774158598182874600,0.77687451171875,-8.292100007808209,-4.610554352068901,-2.4807760740205644
1774158598202868700,0.79686865234375,-8.125517698988318,-4.748003505384922,-2.7573189329892394
1774158598222862800,0.81686279296875,-7.916530080637335,-4.868133859631419,-3.1305291452914474
1774158598242856700,0.836856689453125,-7.672306313732266,-4.96835773640275,-3.5526790373295545
1774158598262850800,0.856850830078125,-7.4545572967767715,-5.011148830381035,-3.935523047156632
1774158598282845400,0.876845458984375,-7.235678983530402,-5.028621358707547,-4.3044513443559405
1774158598302839600,0.896839599609375,-7.034670088973641,-4.989904382300376,-4.66740261297226
1774158598322833700,0.916833740234375,-6.8770362257629625,-4.88871224501878,-4.997723531618714
1774158598342827500,0.93682763671875,-6.715584850090742,-4.723061371830106,-5.363208118104934
1774158598362821600,0.956821533203125,-6.470237047591805,-4.507796572905779,-5.829767645233869
1774158598382815500,0.9768154296875,-6.1029299218535416,-4.2961414889112115,-6.361431220436096
1774158598402809600,0.9968095703125,-5.724931306231022,-4.056169826492667,-6.851497879880666
1774158598422803500,1.016803466796875,-5.457718877926468,-3.7446497621670365,-7.236109776163101
1774158598442797300,1.03679736328125,-5.306605356395244,-3.352939724317193,-7.534462608140706
1774158598462791400,1.05679150390625,-5.129578810450434,-2.944176844857633,-7.822379970821737
1774158598482785500,1.07678564453125,-4.90865876224339,-2.5484257149234413,-8.098208251780271
1774158598502779400,1.096779296875,-4.675109534087777,-2.168163099891692,-8.343429213029145
1774158598522773500,1.1167734375,-4.490373144418001,-1.7979161213092505,-8.530793613114952
1774158598542767600,1.136767578125,-4.37320543936938,-1.4314419392637907,-8.660048938581347
1774158598562761500,1.156761474609375,-4.292345603759586,-1.0776316431540995,-8.7512770234704
1774158598582755600,1.176755615234375,-4.22275651922673,-0.7591564989935606,-8.818298887863754
1774158598602749700,1.196749755859375,-4.164266628596186,-0.44917190060690043,-8.867214602202177
1774158598622743600,1.21674365234375,-4.112443794639408,-0.14278486092132514,-8.90156227748394
1774158598642737700,1.236737548828125,-4.041820106361806,0.171979802215565,-8.933335718363523
1774158598662731500,1.2567314453125,-3.9664948162645097,0.4702108527107164,-8.956349514204263
1774158598682725400,1.276725341796875,-3.8856124765619633,0.7148265780754387,-8.97560249620676
1774158598702719500,1.296719482421875,-3.795583830590546,0.8894769694734365,-8.998486528187989
1774158598722713300,1.31671337890625,-3.709854927639663,0.9971388142257929,-9.022919543176888
1774158598742707500,1.33670751953125,-3.644113750706613,1.060537885012105,-9.042460109949111
1774158598762701600,1.35670166015625,-3.5783401328086852,1.1120256417956202,-9.062520316681265
1774158598782695400,1.3766953125,-3.4993484291583297,1.1943651945691556,-9.082864601051806
1774158598802689500,1.396689453125,-3.415885133051872,1.323991033848375,-9.096657564082742
1774158598822683600,1.41668359375,-3.336165699648857,1.4590841255575417,-9.105573276466131
1774158598842677500,1.436677490234375,-3.278264130300283,1.572961703019589,-9.107643068477511
1774158598862671600,1.456671630859375,-3.233004015859961,1.6598314465686679,-9.108403531455993
1774158598882665500,1.47666552734375,-3.19511910636276,1.714364854658395,-9.111671593341232
1774158598902659300,1.496659423828125,-3.1658526798680424,1.7574813811987637,-9.113672411769628
1774158598922653400,1.5166533203125,-3.1502123354047535,1.7854618595361709,-9.113653707069158
1774158598942647600,1.5366474609375,-3.1799837888121605,1.7935417056173084,-9.101720108169317
1774158598962641400,1.556641357421875,-3.2254110765129327,1.7890147297121584,-9.086613724452256
1774158598982635500,1.576635498046875,-3.229516758266091,1.7907628885537386,-9.084809889900685
1774158599002629600,1.596629638671875,-3.193389506091177,1.8035748777233063,-9.095040776535868
1774158599022623500,1.61662353515625,-3.160448482736945,1.8353335594251752,-9.100192167949675
1774158599042617600,1.63661767578125,-3.131492145104706,1.8876292715907095,-9.099505939251184
1774158599062611500,1.656611572265625,-3.0678017632216212,1.9474341903425751,-9.10859350107014
1774158599082605600,1.67660546875,-2.997428250312805,2.0211383089788257,-9.115965491142868
1774158599102599700,1.696599609375,-2.9396622900426386,2.0907227173365652,-9.119082161858678
1774158599122593300,1.71659326171875,-2.8794585812315345,2.1517092470884323,-9.124102035847306
1774158599142587400,1.73658740234375,-2.848389489229023,2.257898169744015,-9.108181413137912
1774158599162581500,1.75658154296875,-2.7809040989771483,2.371244709069282,-9.100228992828725
1774158599182575400,1.776575439453125,-2.69105402444303,2.4294801865473388,-9.111874422436951
1774158599202569500,1.796569580078125,-2.5998008051127193,2.425759120197594,-9.139317140635848
1774158599222563600,1.8165634765625,-2.528655723309517,2.41662771923691,-9.161669257697463
1774158599242557400,1.836557373046875,-2.5034672137781975,2.4181600433707238,-9.168180831548572
1774158599262551600,1.856551513671875,-2.4866154476985334,2.450676119311154,-9.164131263896822
1774158599282545400,1.87654541015625,-2.466935180194676,2.5035636598899957,-9.155151254105567
1774158599302539300,1.896539306640625,-2.453093117325008,2.5294427820339798,-9.151756350970267
1774158599322533400,1.916533447265625,-2.428552842569351,2.5150457156300545,-9.162262547415494
1774158599342527200,1.93652734375,-2.4023469726890325,2.4898452233999966,-9.176044989052414
1774158599362521000,1.95652099609375,-2.4049554016217587,2.4594012775585052,-9.18356895481646
1774158599382515200,1.97651513671875,-2.4417612837105986,2.38879731689468,-9.192487005287408
1774158599402509300,1.99650927734375,-2.4853265769317745,2.282734358706325,-9.207750040870904
1774158599422503200,2.016503173828125,-2.560311383028328,2.2107263764634726,-9.204775408974289
1774158599442497300,2.036497314453125,-2.7155057441323995,2.1722926009118555,-9.169380854988098
1774158599462491400,2.056491455078125,-2.8630829082310196,2.1529517944954333,-9.12896175083816
1774158599482485200,2.0764853515625,-2.9677304466634986,2.1575195408023893,-9.094397217935324
1774158599502479400,2.096479248046875,-3.0307655795082447,2.157044032245129,-9.073697544255852
1774158599522473200,2.11647314453125,-3.078961162878573,2.1173766232453284,-9.066813045439124
1774158599542467300,2.13646728515625,-3.142895290389657,2.075077112176269,-9.054648560392856
1774158599562461400,2.15646142578125,-3.210573865126073,2.067571997243166,-9.032593380451202
1774158599582455000,2.176455078125,-3.2474200792253014,2.0598411107301713,-9.02118175959885
1774158599602449200,2.19644921875,-3.2733436250329015,2.061336463854462,-9.01146583674848
1774158599622443300,2.216443359375,-3.255401141107082,2.0821968810535965,-9.013169133535026
1774158599642437000,2.23643701171875,-3.198779382435977,2.103537775246054,-9.02847367017269
1774158599662431200,2.25643115234375,-3.0958120521754027,2.124335210211575,-9.059445147019623
1774158599682424300,2.27642431640625,-3.0300103772267697,2.1568903029881414,-9.073986882591248
1774158599702418400,2.29641845703125,-3.0158997265487906,2.2041005285829303,-9.0673414532274
1774158599722412300,2.316412353515625,-3.029306905132532,2.2506094740405675,-9.05143310547769
1774158599742406400,2.336406494140625,-3.04972337795645,2.2943474934801458,-9.033578884357214
1774158599762400300,2.356400146484375,-3.046941930544376,2.3298664044983686,-9.025423634952306
1774158599782394000,2.37639404296875,-2.9832798979729414,2.355312542052567,-9.04007350707352
1774158599802388200,2.39638818359375,-2.839034800906479,2.4294734645456075,-9.066859222668409
1774158599822382300,2.41638232421875,-2.579772454823553,2.598238670362532,-9.097489338731766
1774158599842376200,2.436376220703125,-2.2072588464833793,2.8017724072217938,-9.135012721440196
1774158599862370300,2.456370361328125,-1.864414692480862,2.978712736187875,-9.155414288955926
1774158599882364200,2.4763642578125,-1.7435623075701294,3.1100936755061146,-9.135517748352886
1774158599902358300,2.496358154296875,-1.684386480502039,3.2156770334839817,-9.11003142491877
1774158599922352400,2.516352294921875,-1.6170251550212502,3.307163477048278,-9.08945976153314
1774158599942346200,2.53634619140625,-1.6177590222537517,3.345225788938999,-9.075390904170273
1774158599962340400,2.55634033203125,-1.6327547852031885,3.327334450678527,-9.079280312824249
1774158599982334500,2.57633447265625,-1.6379526461072265,3.2866260081931946,-9.093160954138636
1774158600002328000,2.596328125,-1.6229295567594468,3.252387346243858,-9.108154525130987
1774158600022322200,2.616322265625,-1.5783926420271395,3.2398373690113424,-9.120445266905426
1774158600042316300,2.63631640625,-1.495816650149226,3.248856834030151,-9.131146693661808
1774158600062310100,2.65631005859375,-1.4326957387171684,3.355887760467827,-9.102515057939291
1774158600082304300,2.67630419921875,-1.4988291298381984,3.5087665381059048,-9.033962330716848
1774158600102298400,2.69629833984375,-1.5462109126076102,3.5722874086409804,-9.001019846057892
1774158600122292200,2.716292236328125,-1.5649446930415927,3.584994914522767,-8.992727818530797
1774158600142286300,2.736286376953125,-1.6071774224847555,3.577050969780981,-8.988441519513726
1774158600162280400,2.756280517578125,-1.683246516686678,3.5423499510169028,-8.988259733206034
1774158600182274300,2.7762744140625,-1.758782819186151,3.4885873811691996,-8.994821575939655
1774158600202268400,2.796268310546875,-1.8099232238367198,3.4217256757736205,-9.01034764637351
1774158600222262300,2.81626220703125,-1.8408365407556295,3.3554172203466295,-9.029003247004747
1774158600242256100,2.836256103515625,-1.865781596919894,3.288111862836778,-9.048622724232077
1774158600262250200,2.856250244140625,-1.9097317978054285,3.2135049501419064,-9.066239044943451
1774158600282244400,2.876244384765625,-1.986227592986822,3.1152675710126756,-9.084073976841568
1774158600302238500,2.896238525390625,-2.0859264229707417,3.0052447692826387,-9.098781716629862
1774158600322232300,2.916232421875,-2.1899882704697546,2.895145395185053,-9.110019734480977
1774158600342226200,2.93622607421875,-2.280517997831106,2.7843820042207836,-9.122325673824548
1774158600362220300,2.95622021484375,-2.369766745471209,2.6653312619045377,-9.135131379383802
1774158600382213400,2.97621337890625,-2.445869595812261,2.5463360491678118,-9.149003837391733
1774158600402207500,2.99620751953125,-2.4919918800398704,2.4398650947004556,-9.165555743741988
1774158600422201300,3.016201416015625,-2.5098043078452346,2.332758034286648,-9.188553172969817
1774158600442195500,3.036195556640625,-2.51579068877846,2.223398518770933,-9.213992734652757
1774158600462189300,3.056189208984375,-2.533481536030769,2.1332041608437895,-9.23045520915389
1774158600482183400,3.076183349609375,-2.541637369957566,2.0712223364442583,-9.242322172558307
1774158600502177300,3.09617724609375,-2.515102414253354,2.038416045385599,-9.256862154564262
1774158600522171100,3.116171142578125,-2.4639085258498787,2.0282373273290695,-9.272852335378527
1774158600542165200,3.136165283203125,-2.3974947103522717,2.03369544660449,-9.289051775029302
1774158600562159400,3.156159423828125,-2.3289329230405387,2.0407786828637122,-9.304927974075078
1774158600582153200,3.1761533203125,-2.2906439627870916,2.0370171383731064,-9.315250630646943
1774158600602147300,3.196147216796875,-2.2963395440801975,2.0259145834699273,-9.316268867778778
1774158600622141400,3.216141357421875,-2.298935844183713,2.0074309784047304,-9.319629284122586
1774158600642135300,3.23613525390625,-2.266970095602423,1.9781451165571808,-9.333712170010804
1774158600662129400,3.25612939453125,-2.2314817258529365,1.9562442503944037,-9.346871511313319
1774158600682123500,3.27612353515625,-2.200375370579958,1.9671279018498955,-9.35195802079737
1774158600702117400,3.296117431640625,-2.1423364385873076,2.0178031732067465,-9.354636884617804
1774158600722111500,3.316111572265625,-2.040929635641724,2.096317614734173,-9.360044881141185
1774158600742105300,3.336105224609375,-1.9619199579432605,2.1694299049571155,-9.360279858940839
1774158600762099200,3.35609912109375,-1.905717301467061,2.2053408840328452,-9.363497067421674
1774158600782093300,3.37609326171875,-1.856504211617261,2.203412400188297,-9.373834337040782
1774158600802087400,3.39608740234375,-1.844899552410841,2.182975907489657,-9.380902960252762
1774158600822081300,3.416081298828125,-1.8555624007225036,2.1634224812358616,-9.38332989513874
1774158600842075400,3.436075439453125,-1.8453360441319644,2.1407167284309865,-9.390550494042039
1774158600862069200,3.4560693359375,-1.7555783240564167,2.147733183064312,-9.406145538058876
1774158600882063400,3.4760634765625,-1.7613352801479398,2.1796613761141894,-9.397721993106604
1774158600902057500,3.496057373046875,-1.8112432203941047,2.1068425158798694,-9.404839131635427
1774158600922051300,3.51605126953125,-1.8891043125793336,2.055988234694302,-9.400774950936436
1774158600942045400,3.53604541015625,-2.0313398233890534,2.0164961822614074,-9.379646822711825
1774158600962039300,3.556039306640625,-2.164441887411475,1.9719195200406014,-9.359332933479546
1774158600982032400,3.576032470703125,-2.2861311615377664,1.9279417004957795,-9.339541022294759
1774158601002026200,3.596026123046875,-2.3689354092136026,1.887076313883066,-9.327244435301422
1774158601022020400,3.616020263671875,-2.4328205830164253,1.8557579232946038,-9.317077846074104
1774158601042014500,3.636014404296875,-2.4597382544279096,1.831017303661257,-9.314905762732028
1774158601062008300,3.65600830078125,-2.5024150743767617,1.8058190033882855,-9.308453810113669
1774158601082002400,3.67600244140625,-2.534956869280338,1.7780298098392784,-9.30499811670184
1774158601101996500,3.69599658203125,-2.540908471161127,1.7503280023127794,-9.308626244071126
1774158601121990400,3.715990478515625,-2.5810847064658997,1.8014986559711397,-9.28778745418191
1774158601141984500,3.735984619140625,-2.658181974671781,1.9686957356885075,-9.231939894753694
1774158601161978400,3.755978271484375,-2.6782284451395273,2.202841614563018,-9.173057497674225
1774158601181972200,3.77597216796875,-2.6012846139296886,2.4515293751396237,-9.132016462233661
1774158601201966300,3.79596630859375,-2.4440111084640024,2.74527924336642,-9.091790834829212
1774158601221960200,3.815960205078125,-2.2768822716772554,3.0797920607447624,-9.027793286693095
1774158601241954300,3.835954345703125,-2.124832492209226,3.4569916349440812,-8.927747104576229
1774158601261948400,3.855948486328125,-1.9675040416859089,3.8385841834053394,-8.807076067581772
1774158601281942000,3.87594189453125,-1.740814470166713,4.189209346672892,-8.694278540441394
1774158601301936000,3.89593603515625,-1.5096093209192156,4.501569368954002,-8.580637548214197
1774158601321930200,3.91593017578125,-1.3272627489954232,4.757799799995124,-8.471841073408722
1774158601341924000,3.935924072265625,-1.2475187656730413,5.174433266699314,-8.236462291738391
1774158601361918200,3.955918212890625,-1.1275875141952185,5.738751741790771,-7.871827015557884
1774158601381912300,3.975912353515625,-0.8749261738125235,6.143189451527595,-7.593821390560269
1774158601401906200,3.99590625,-0.6863172535583376,6.475273872715235,-7.3328165847241875
1774158601421899000,4.01589892578125,-0.5596873812247067,6.750981742164492,-7.090936166074871
1774158601441893000,4.03589306640625,-0.45881848454810675,6.960750281760096,-6.892591522291302
1774158601461887200,4.05588720703125,-0.3534777762196958,7.149037641909718,-6.703482908886671
1774158601481881000,4.075881103515625,-0.20786659669810906,7.308022335207462,-6.536053043326735
1774158601501875200,4.095875244140625,-0.06614279370361473,7.4392825707554815,-6.389294209873676
1774158601521869000,4.115869140625,-0.010702673431974835,7.542630132505297,-6.26729689271152
1774158601541863200,4.13586328125,-0.040787083512381646,7.656991840222477,-6.126922207337618
1774158601561857300,4.155857177734375,-0.08690912571139633,7.78526224630475,-5.962595568490028
1774158601581851100,4.17585107421875,-0.130678891996108,7.900913409310578,-5.8076557666689155
1774158601601845000,4.195844970703125,-0.11844706820151768,7.968077897045016,-5.715424642217159
1774158601621839000,4.215839111328125,-0.10816242381879128,7.986670369312167,-5.689621507918834
1774158601641833000,4.2358330078125,-0.11228556816340424,7.982249045738578,-5.695740283060074
1774158601661827000,4.2558271484375,-0.12626778842243366,7.977423817539215,-5.7022033415943385
1774158601681821200,4.2758212890625,-0.17539074317021294,7.963280141374469,-5.720647345301509
1774158601701815000,4.29581494140625,-0.2243337839069776,7.943671770063042,-5.74613951395452
1774158601721809200,4.31580908203125,-0.2988197919022292,7.939482501679659,-5.748537807267904
1774158601741802200,4.33580224609375,-0.36722485428228974,7.9534712795436375,-5.7251925875157115
1774158601761796400,4.35579638671875,-0.48583954326882955,7.96415341707766,-5.701456907141209
1774158601781790200,4.375790283203125,-0.6363238269858061,7.969951874223351,-5.678496887314319
1774158601801784000,4.3957841796875,-0.801163164595887,7.978522718691825,-5.645505302816629
1774158601821778200,4.415778076171875,-0.8760091467436403,8.012484025004506,-5.5859740864396095
1774158601841772000,4.43577197265625,-0.8668433320567012,8.095865488046407,-5.465890493944287
1774158601861766100,4.45576611328125,-0.7730810525149107,8.178295349451899,-5.356138910371065
1774158601881760000,4.475760009765625,-0.5520475339960307,8.256870288994907,-5.262102197802067
1774158601901754000,4.495754150390625,-0.32124950424470006,8.308551960915327,-5.199533805686235
1774158601921748200,4.515748291015625,-0.13200734585458412,8.282366549301146,-5.2493198731184005
1774158601941742000,4.5357421875,-0.03761631483902456,8.220090418130159,-5.347812396052479
1774158601961736200,4.555736083984375,-0.03189464240672532,8.169642087396978,-5.424603959310055
1774158601981730300,4.575730224609375,-0.035721447852998967,8.152824223586917,-5.449822571718692
1774158602001723100,4.59572314453125,-0.02456153673939407,8.159015479442477,-5.440608753171563
1774158602021717000,4.615717041015625,-0.056377976510487496,8.185982981345058,-5.399712094637751
1774158602041711000,4.635711181640625,-0.30236561128292233,8.305421261674166,-5.205664855787158
1774158602061705200,4.655705322265625,-0.8718933089226484,8.469296649622917,-4.866335870298743
1774158602081699000,4.675698974609375,-1.4825057715468108,8.629806360530853,-4.415768569810688
1774158602101693200,4.695693115234375,-1.413013133125752,8.857650070521235,-3.964314549615979
1774158602121687300,4.715687255859375,-1.3021516886144875,9.104722797116636,-3.402767000542581
1774158602141681200,4.73568115234375,-1.061858319960907,9.325461643537878,-2.842285327135026
1774158602161675300,4.75567529296875,-0.7895061176151037,9.44839945642054,-2.5049568678140637
1774158602181669000,4.775669189453125,-0.639053325014934,9.478940725156665,-2.4314001948244868
1774158602201663200,4.795663330078125,-0.719208738682419,9.462167285010217,-2.473967563049495
1774158602221657000,4.815656982421875,-0.8643170284494757,9.440148345425724,-2.51136088963747
1774158602241650200,4.835650146484375,-0.9645653090097009,9.43864553964734,-2.480316055293381
1774158602261644000,4.85564404296875,-0.991474870179966,9.449766653120518,-2.4267813028521834
1774158602281638000,4.875637939453125,-0.9582149901349097,9.46443873707354,-2.3825699668124316
1774158602301632000,4.895632080078125,-0.9072532299868762,9.48670668298304,-2.3129385044425725
1774158602321625900,4.9156259765625,-0.9335414443884045,9.492664130082726,-2.27776416907832
1774158602341620000,4.935619873046875,-1.0623765716813505,9.494082180187105,-2.214529714269191
1774158602361614000,4.955614013671875,-1.1897575546432286,9.497382975298166,-2.134142610737681
1774158602381608000,4.97560791015625,-1.2134990071713925,9.507721998482943,-2.0738915556535122
1774158602401602000,4.99560205078125,-1.1816283895276487,9.525038459464907,-2.0119059318616985
1774158602421596200,5.01559619140625,-1.196447261540219,9.533718609526753,-1.9614038251146673
1774158602441590000,5.035590087890625,-1.2558441109478473,9.53493792218864,-1.9178613282471895
1774158602461584100,5.055584228515625,-1.2834732916295528,9.537634321665763,-1.8858995251886546
1774158602481577000,5.075576904296875,-1.2298745340414345,9.547367780172824,-1.8723156748637555
1774158602501570800,5.09557080078125,-1.1335017066750674,9.559372106221318,-1.8718828364044426
1774158602521565000,5.11556494140625,-1.0382296801574527,9.568421674117445,-1.880888272897899
1774158602541559000,5.13555908203125,-0.9853511266026646,9.568335164877771,-1.909566670371592
1774158602561553000,5.155552978515625,-0.8714997795604169,9.56395417331457,-1.9853595779806374
1774158602581547000,5.175547119140625,-0.6745929134950042,9.563834346327186,-2.0611654912017285
1774158602601541000,5.195541015625,-0.4826426834562793,9.575841594985127,-2.059296628589928
1774158602621535000,5.215534912109375,-0.333406171310693,9.587311668026446,-2.0353594342939556
1774158602641529000,5.235529052734375,-0.23019736044444142,9.593381343328952,-2.0209951011158527
1774158602661523200,5.255523193359375,-0.17114833809379487,9.595894202932715,-2.0149207496382293
1774158602681517000,5.27551708984375,-0.33370098953880367,9.594189737102388,-2.0026405292578042
1774158602701510000,5.295510009765625,-0.645753991697356,9.566002338016032,-2.060338392727822
1774158602721504000,5.31550390625,-0.8514803432300686,9.535651623415946,-2.1252570012316108
1774158602741498000,5.335498046875,-0.8771541520603,9.535037290909885,-2.117562501206249
1774158602761492000,5.355491943359375,-0.8008991068322211,9.545295650073886,-2.1014915102407334
1774158602781486000,5.375486083984375,-0.7579599826853722,9.55123673056066,-2.090399330601096
1774158602801480000,5.39547998046875,-0.8047975755754858,9.552045124334096,-2.069081963414699
1774158602821474000,5.41547412109375,-0.9377861692860722,9.539100887086986,-2.0727958693712947
1774158602841468200,5.43546826171875,-1.1190041755713522,9.51003962777555,-2.115984730495512
1774158602861462000,5.4554619140625,-1.4091962051860987,9.454391390311718,-2.190670115254074
1774158602881455900,5.475455810546875,-1.826011750458926,9.3446678637892,-2.348032760307938
1774158602901449000,5.495448974609375,-1.985929194562137,9.25224150902629,-2.5734233780577775
1774158602921443000,5.515443115234375,-2.1076059014678,9.207074333566426,-2.6378371057793495
1774158602941437000,5.53543701171875,-2.1742202079735695,9.18804463892579,-2.6500927762404083
1774158602961431000,5.55543115234375,-2.1516972643896937,9.186617236471175,-2.6733213838756082
1774158602981425200,5.575425048828125,-2.1000530018702146,9.185659789615869,-2.7173157161638137
1774158603001419000,5.5954189453125,-2.0478980133496223,9.1897046810925,-2.743324309906363
1774158603021413000,5.6154130859375,-2.0227036585994065,9.190836315470934,-2.7581828563421964
1774158603041407200,5.6354072265625,-2.040779705777019,9.166708420908451,-2.824369146694243
1774158603061401000,5.655401123046875,-2.126840324900299,9.111119804677367,-2.9384429773807526
1774158603081395000,5.67539501953125,-2.2474131622172893,9.037190060591698,-3.0738734843507407
1774158603101388000,5.695387939453125,-2.3488949300952253,8.98498407253623,-3.150101860767603
1774158603121382000,5.7153818359375,-2.397330898092687,8.973769435560703,-3.145578830385208
1774158603141376000,5.7353759765625,-2.4224159472495317,8.968815612545608,-3.1404812149852512
1774158603161370000,5.7553701171875,-2.4189532395750284,8.972873948025702,-3.1315432907700536
1774158603181364000,5.775364013671875,-2.351367165427655,8.993928426492214,-3.1226132576003667
1774158603201358000,5.795358154296875,-2.285430612052977,9.029414165893197,-3.0686928668424485
1774158603221352200,5.815352294921875,-2.197153632054478,9.071416739842295,-3.008702216260135
1774158603241346000,5.835345947265625,-2.1271298093661666,9.11268281621039,-2.933381602337956
1774158603261340000,5.85533984375,-2.1244331176280973,9.154192053684591,-2.8032015632420775
1774158603281333000,5.8753330078125,-2.1412571189180016,9.200274005901813,-2.6344559389084576
1774158603301327000,5.8953271484375,-2.218549909695983,9.219575503221154,-2.4995710831224915
1774158603321321000,5.915321044921875,-2.360014874524623,9.226158973264694,-2.340662085409462
1774158603341315000,5.935315185546875,-2.446937663435191,9.23414821845293,-2.2166125118926168
1774158603361309000,5.955308837890625,-2.431696839683503,9.245888340607285,-2.1842118790253995
1774158603381303000,5.975302978515625,-2.3632534180544313,9.250527690845727,-2.2390072990521785
1774158603401297200,5.995297119140625,-2.3202938356414435,9.254002673479913,-2.2693765722222623
1774158603421291000,6.015291015625,-2.289613012304157,9.26564868761003,-2.2529577907323834
1774158603441284900,6.035284912109375,-2.27336271924898,9.277175459274648,-2.221761419088393
1774158603461279000,6.055279052734375,-2.2441106135405597,9.29444515850544,-2.1789051509194075
1774158603481272000,6.07527197265625,-2.203982601291686,9.315421311038731,-2.1297335621237754
1774158603501266000,6.095265869140625,-2.208839393673092,9.322387642920017,-2.093918152377009
1774158603521260000,6.115260009765625,-2.3078214536897836,9.29657106461823,-2.101928732614219
1774158603541254100,6.135254150390625,-2.3774558386690914,9.284442819929122,-2.077794554441422
1774158603561248000,6.155248046875,-2.3973566170558334,9.288127645921707,-2.0380730771668256
1774158603581242000,6.1752421875,-2.384963291689753,9.294607655590772,-2.023015793288499
1774158603601236200,6.195236328125,-2.3458780664920806,9.305087548550963,-2.0205476496092976
1774158603621230000,6.21522998046875,-2.2357769388288258,9.330367535758018,-2.028775525858998
1774158603641224000,6.235223876953125,-2.0881430761069057,9.364935575792193,-2.0268261453568934
1774158603661217000,6.255217041015625,-1.9391937468722462,9.40074981649518,-2.008934514835477
1774158603681211000,6.2752109375,-1.7739748353600502,9.436821246829629,-1.99243682289049
1774158603701205000,6.295205078125,-1.615697705809772,9.47227308396101,-1.9585599799908697
1774158603721199000,6.31519921875,-1.5208169436320662,9.494413019576669,-1.9270780694037675
1774158603741193000,6.33519287109375,-1.4884477288164197,9.501033899021149,-1.9197078328967094
1774158603761187000,6.35518701171875,-1.4090297625780104,9.513807455876469,-1.9163743045598267
1774158603781181200,6.37518115234375,-1.229270284537971,9.54058557268679,-1.9069652557015417
1774158603801175000,6.395175048828125,-1.0370180393453687,9.575475099760293,-1.8453288837388158
1774158603821167900,6.41516796875,-0.859087018841505,9.610120296683906,-1.7544119106255471
1774158603841162000,6.435161865234375,-0.7242890376213937,9.634209612801671,-1.6816111705698071
1774158603861156000,6.455156005859375,-0.6309149536795914,9.646952189996838,-1.6457973682582376
1774158603881150000,6.47514990234375,-0.5819109400032088,9.651361823132634,-1.637987425159663
1774158603901144000,6.49514404296875,-0.6096938864745199,9.652166125252842,-1.6230603435322641
1774158603921138200,6.51513818359375,-0.681414064751938,9.649128949514031,-1.6125599923059344
1774158603941132000,6.535132080078125,-0.7581774248283356,9.644851418325304,-1.6038699053719638
1774158603961126100,6.555126220703125,-0.8080952288813888,9.64071943308711,-1.6043426374502479
1774158603981120000,6.5751201171875,-0.7852147770967334,9.640694883167743,-1.6158089110992848
1774158604001112800,6.59511279296875,-0.7804313422124832,9.63678443172574,-1.6412480343908071
1774158604021107000,6.61510693359375,-0.8124043973173946,9.619633974960445,-1.7242421055503188
1774158604041101000,6.63510107421875,-0.7741744737748056,9.604513562718033,-1.8232824716255067
1774158604061095000,6.655094970703125,-0.709988563459739,9.590879589641094,-1.918677759196609
1774158604081089000,6.675089111328125,-0.7173025397349149,9.574018471211195,-1.9985054752796887
1774158604101083100,6.695083251953125,-0.7464742736835033,9.554645662221311,-2.0789175671219824
1774158604121077000,6.715076904296875,-0.7792953969851135,9.537124034056067,-2.1462417754627765
1774158604141071000,6.735071044921875,-0.805113363526389,9.521203411346674,-2.2065496753007174
1774158604161064000,6.75506396484375,-0.8283445284448564,9.50183294044435,-2.2802162384055555
1774158604181058000,6.77505810546875,-0.8506069944616407,9.481471704939008,-2.35553056871742
1774158604201052000,6.795052001953125,-0.8723760509382933,9.4611765204072,-2.4280631593562663
1774158604221046000,6.8150458984375,-0.8964524345092475,9.444415939742326,-2.4839053119570016
1774158604241040000,6.835039794921875,-0.9189007054217159,9.44127471910715,-2.487644206224382
1774158604261034000,6.855033935546875,-0.9144120157003403,9.452481757298111,-2.4463882128588854
1774158604281028000,6.875028076171875,-0.9049165306676179,9.460710071939229,-2.4179488848380744
1774158604301022000,6.89502197265625,-0.8965298105943947,9.461278227216004,-2.4188448107644915
1774158604321014800,6.915014892578125,-0.8942835660375654,9.458653139409423,-2.4299223773568865
1774158604341009000,6.9350087890625,-0.8969510316811501,9.459213111379743,-2.4267567529328167
1774158604361003000,6.9550029296875,-0.885406359033659,9.46721755413711,-2.3996346449904142
1774158604380996900,6.974996826171875,-0.8621915607281029,9.482608015492557,-2.3467367291480303
1774158604400991000,6.994990966796875,-0.8438079819712787,9.505295063596963,-2.2600357662945982
1774158604420985000,7.014985107421875,-0.8499776835821569,9.523719778081775,-2.1786893162116407
1774158604440979000,7.03497900390625,-0.8341319527398794,9.548830253940821,-2.0723038480706513
1774158604460973000,7.05497314453125,-0.7759321310970931,9.584610007852316,-1.9244646720349787
1774158604480966000,7.0749658203125,-0.7193507775016129,9.618744332644344,-1.7699401730164885
1774158604500960000,7.0949599609375,-0.6663752663783729,9.645056000986695,-1.642929557736963
1774158604520953900,7.114953857421875,-0.5998823942951858,9.662962829077243,-1.5613048752345144
1774158604540948000,7.134947998046875,-0.5283865628255531,9.675831078478694,-1.5064849052883684
1774158604560941800,7.15494189453125,-0.4953033910542726,9.68505015772283,-1.4576957399390638
1774158604580936000,7.17493603515625,-0.4698968548581004,9.690504331475495,-1.4295947039619088
1774158604600930000,7.194929931640625,-0.46366223478484897,9.690668582126497,-1.4305056813269852
1774158604620924000,7.214923828125,-0.48911250052489336,9.688059860932826,-1.439675514601916
1774158604640917000,7.2349169921875,-0.515621262341924,9.68909680276513,-1.4233524485714732
1774158604660911000,7.2549111328125,-0.5328776271671056,9.693470195543766,-1.3867491033174097
1774158604680905000,7.274905029296875,-0.5654865324901417,9.697936527302861,-1.3418721429757774
1774158604700898800,7.29489892578125,-0.6545145135190338,9.6970217505455,-1.3075855502314864
1774158604720893000,7.314892822265625,-0.798978367902711,9.691790279632807,-1.2653950524948536
1774158604740887000,7.334886962890625,-0.8928701921083032,9.690605453762412,-1.2105135616198182
1774158604760881000,7.354880859375,-0.8553042854323982,9.70092226511538,-1.1536645700640975
1774158604780875000,7.374875,-0.841715101345256,9.706301620066165,-1.1178706414967774
1774158604800868000,7.3948681640625,-0.8499011842798441,9.708554951950907,-1.0918053491309285
1774158604820862000,7.414862060546875,-0.8560480164717882,9.710238959515094,-1.0718300442032516
1774158604840856000,7.43485595703125,-0.8527348002705722,9.711537182632089,-1.0626765775412321
1774158604860850000,7.454849853515625,-0.814117996302247,9.716122756856679,-1.050984313116595
1774158604880843800,7.47484375,-0.7791672405607998,9.720790164145827,-1.034175509395823
1774158604900838000,7.494837890625,-0.7880622754823416,9.72072528221607,-1.0280169867660849
1774158604920832000,7.51483203125,-0.8227467084378004,9.7190289996922,-1.0168290186017752
1774158604940825900,7.534825927734375,-0.8622099001023917,9.717163205820322,-1.0018535677880047
1774158604960819000,7.55481884765625,-0.8710827231921255,9.716972651684284,-0.9960138287838548
1774158604980813000,7.57481298828125,-0.8442734805911779,9.719145319548248,-0.9979022728789597
1774158605000807200,7.59480712890625,-0.7957376324158162,9.72193933418095,-1.0104918514695018
1774158605020801000,7.614801025390625,-0.7056828290898353,9.729301387381554,-1.0065204636204987
1774158605040795100,7.634795166015625,-0.6037857218766585,9.742061500233412,-0.9476565520457922
1774158605060789000,7.6547890625,-0.4730645251087844,9.759243521180748,-0.8388994594026357
1774158605080782800,7.674782958984375,-0.325654059346579,9.772807351630926,-0.7460206116318703
1774158605100776000,7.69477587890625,-0.17705122372834012,9.779670807659626,-0.7050484036438167
1774158605120770000,7.71477001953125,-0.09901402605753391,9.778922619640827,-0.7302443658292294
1774158605140764000,7.734763916015625,-0.109495590385003,9.774110835444926,-0.7906682201970369
1774158605160758000,7.754758056640625,-0.08835178966722451,9.768983993950485,-0.8541250125199555
1774158605180752100,7.774752197265625,-0.05785455186907202,9.763931971257925,-0.9125172879949212
1774158605200746000,7.79474609375,-0.09078298973636702,9.760149530109762,-0.9495398815743624
1774158605220740000,7.814739990234375,-0.1277083974184934,9.757477096030115,-0.9724635879788547
1774158605240734000,7.83473388671875,-0.1257264298210386,9.755587921282649,-0.991505338383466
1774158605260727000,7.85472705078125,-0.10546339399316347,9.753759536811708,-1.011647451245412
1774158605280721000,7.874720947265625,-0.09100976596325636,9.750059513249992,-1.0480601692982017
1774158605300715800,7.8947158203125,-0.0704614788866369,9.74359294758439,-1.1080622180573643
1774158605320709600,7.914709716796875,-0.034349211935012135,9.736227971774339,-1.1726275561440735
1774158605340703500,7.934703369140625,-0.021562174543610306,9.727600428682566,-1.2424598748482762
1774158605360697600,7.954697509765625,-0.0176553763634176,9.71750398208201,-1.3191677053451538
1774158605380691500,7.97469140625,-0.012414212890481575,9.707214643257856,-1.3929074798166752
1774158605400684500,7.9946845703125,-0.02554483042201027,9.69728303183019,-1.4602908709987996
1774158605420678700,8.0146787109375,-0.06994547392220701,9.685544078719616,-1.5348400621570646
1774158605440672500,8.034672607421875,-0.11405347288507037,9.672786303955316,-1.6107653639741242
1774158605460666600,8.05466650390625,-0.13199149069832636,9.661220953845977,-1.677431108406186
1774158605480660700,8.07466064453125,-0.14009365820912645,9.65142319793105,-1.7322811812296508
1774158605500654600,8.094654541015625,-0.14148659213855863,9.64402081272006,-1.7729190426968038
1774158605520648400,8.1146484375,-0.13186421105684712,9.639427055189014,-1.798463233797997
1774158605540641500,8.1346416015625,-0.10845492222565226,9.637142159122227,-1.8122190796889364
1774158605560635600,8.1546357421875,-0.09535177722293883,9.634725745630263,-1.8257469620428979
1774158605580629500,8.17462939453125,-0.08683343012668192,9.633158642444014,-1.8344298885837196
1774158605600623600,8.19462353515625,-0.0701600299883401,9.634456281039117,-1.82831652026996
1774158605620617700,8.21461767578125,-0.03133029337209882,9.637412208235263,-1.813751842214167
1774158605640611600,8.234611572265624,0.012547351450589484,9.642698624205588,-1.7856668805889784
1774158605660605700,8.254605712890625,0.056102726065949536,9.650430679762362,-1.7425369100451469
1774158605680598500,8.2745986328125,0.1309260351575911,9.659731592071056,-1.6860685883700846
1774158605700592600,8.294592529296875,0.21973352356990797,9.669804073274134,-1.6177125527635217
1774158605720586500,8.31458642578125,0.299247406197153,9.682872813683748,-1.5240759454280137
1774158605740580600,8.33458056640625,0.3259464298892766,9.696305126708745,-1.4303200956270097
1774158605760574500,8.354574462890625,0.3123071595827117,9.706982003545761,-1.359180859042704
1774158605780568600,8.374568603515625,0.2797532723825425,9.712899703156948,-1.3235102645941077
1774158605800562700,8.394562744140625,0.25066709782555696,9.712617379084229,-1.3314039404533802
1774158605820555800,8.4145556640625,0.22877244220785795,9.708018360856174,-1.3683635517992079
1774158605840549600,8.434549560546875,0.2047669136497192,9.703377257052063,-1.4046135535709559
1774158605860543500,8.45454345703125,0.1733647355016321,9.700744570460914,-1.426843651688099
1774158605880537600,8.47453759765625,0.1285662289573811,9.701320909044146,-1.427660228767991
1774158605900531500,8.494531494140626,0.06845203876036685,9.705189274910092,-1.4053425984978676
1774158605920525600,8.514525634765626,-0.008726633822629809,9.71127239421606,-1.3643757973372936
1774158605940519700,8.534519775390624,-0.0992522552601993,9.715983640646934,-1.326727180813998
1774158605960513500,8.554513427734374,-0.19070459562549366,9.720404964220524,-1.2836537627629936
1774158605980506600,8.574506591796874,-0.2731546961014159,9.723076813778281,-1.2480224774114788
1774158606000500700,8.594500732421874,-0.35626517844852057,9.72337725802958,-1.224494594568759
1774158606020494600,8.61449462890625,-0.4243636590974405,9.724351656019687,-1.194692161501199
1774158606040488400,8.634488525390625,-0.4760044144855812,9.727899703890085,-1.1453149671308696
1774158606060482600,8.654482666015625,-0.5194915279040113,9.731474639767407,-1.0949507344845681
1774158606080476400,8.674476318359375,-0.5655443636246025,9.733750183483957,-1.0510160964943467
1774158606100469500,8.694469482421875,-0.5989089096205309,9.734329444676638,-1.0268983579996973
1774158606120463600,8.714463623046875,-0.618373452014476,9.734300803104043,-1.0155759498007595
1774158606140457700,8.734457763671875,-0.6383428386580199,9.734731595736742,-0.9989541930846869
1774158606160451600,8.75445166015625,-0.659686509329453,9.735921097782253,-0.973144336784631
1774158606180445700,8.77444580078125,-0.6720329998791218,9.739100312340259,-0.9320358621310442
1774158606200439800,8.794439697265625,-0.6802376413837075,9.744770759192109,-0.8643334681276231
1774158606220433700,8.81443359375,-0.6748088212680071,9.750091077432035,-0.806671552753821
1774158606240426500,8.834426513671875,-0.6564515459962189,9.753848968660831,-0.775806605021283
1774158606260420600,8.854420654296876,-0.6057796356402337,9.758847215339541,-0.7538683294575661
1774158606280414500,8.87441455078125,-0.5252570326281711,9.768372584053873,-0.688034286609292
1774158606300408300,8.894408203125,-0.45820258113946766,9.779242353114485,-0.5717108138324692
1774158606320402400,8.91440234375,-0.3993541228622198,9.78926924161017,-0.4255936758164316
1774158606340396300,8.934396240234374,-0.3511812993129715,9.795219674447178,-0.31736210488472133
1774158606360390400,8.954390380859374,-0.3118256596760824,9.797679342558979,-0.28043150043766946
1774158606380383500,8.974383544921874,-0.26712555373869834,9.798942494362592,-0.28243504054611546
1774158606400377600,8.994377685546874,-0.21684571144022047,9.80002795151174,-0.28778730656057594
1774158606420371500,9.014371337890625,-0.174227325414028,9.800759772917628,-0.29175661205034703
1774158606440365600,9.034365478515625,-0.15781806067116558,9.800804196581243,-0.29950362771423533
1774158606460359700,9.054359619140625,-0.17366304259477183,9.799624631407857,-0.3279683641709387
1774158606480353300,9.074353271484375,-0.20268409775998442,9.797374222132563,-0.37520503938123584
1774158606500346400,9.094346435546875,-0.21470022384412585,9.794671392914653,-0.4343899996038526
1774158606520340500,9.114340576171875,-0.20821480734758077,9.791873871150612,-0.4962259857919067
1774158606540334300,9.134334228515625,-0.20632250906126573,9.788083831217884,-0.566765831710957
1774158606560328400,9.154328369140625,-0.20162421344351023,9.783212425789236,-0.6469266156733036
1774158606580322600,9.174322509765625,-0.18008405208559705,9.77695862609148,-0.7409723883315921
1774158606600316400,9.19431640625,-0.1404924391352106,9.769711723703145,-0.8386788754545151
1774158606620310500,9.214310546875,-0.09298657332840375,9.761410343825817,-0.9362794910501688
1774158606640303400,9.234303466796876,-0.06193451922566164,9.750714177766442,-1.044100691082701
1774158606660297500,9.25429736328125,-0.045759958287817426,9.734625797274708,-1.1854868185214698
1774158606680291300,9.274291259765626,-0.03535827709641307,9.709432319307327,-1.376983496106416
1774158606700285400,9.294285400390624,-0.033317823060660154,9.674889998236297,-1.6018087350584567
1774158606720279600,9.314279541015624,-0.03738320476947119,9.646361822888254,-1.7654121741980313
1774158606740273400,9.3342734375,-0.028979460496210956,9.631194064372778,-1.8465243771336972
1774158606760267500,9.354267578125,-0.014598427345056552,9.625059507140517,-1.8784024474315344
1774158606780260600,9.374260498046874,-0.005277979218831751,9.618407648035884,-1.9122173310108481
1774158606800254500,9.39425439453125,0.008289775062858825,9.608972295692562,-1.9590726056881247
1774158606820248300,9.414248291015625,0.027083136772038413,9.602611528488993,-1.9898432992659507
1774158606840242400,9.434242431640625,0.03417016100710025,9.600687282428146,-1.9990048031039536
1774158606860236300,9.454236328125,0.05176713084732182,9.600825814116,-1.9979645002707838
1774158606880230400,9.47423046875,0.09377670992594211,9.603239889520406,-1.9847931762695312
1774158606900223500,9.494223388671875,0.12258380268006584,9.607404023462534,-1.9629367337703705
1774158606920217600,9.514217529296875,0.16626305027026683,9.612883331656455,-1.932673697453737
1774158606940211500,9.53421142578125,0.2221288942738436,9.618591772431135,-1.8983521795265375
1774158606960205600,9.55420556640625,0.28684973344951864,9.624553311184048,-1.8590533115781842
1774158606980199700,9.57419970703125,0.3578208834579214,9.63452817723155,-1.7939327507615088
1774158607000193300,9.594193359375,0.428158082944341,9.64176455822587,-1.7388056145623325
1774158607020186400,9.614186279296876,0.47046172219924626,9.641415014135838,-1.729786587934941
1774158607040180500,9.634180419921876,0.491376171140559,9.632994976314901,-1.7704104208767413
1774158607060174600,9.654174560546876,0.5128302433839067,9.621085342812538,-1.828143209529668
1774158607080168400,9.67416845703125,0.5522842653613538,9.609379122927784,-1.8775586900837717
1774158607100162600,9.69416259765625,0.5863286833802238,9.60334393441677,-1.898004389002174
1774158607120156400,9.714156494140624,0.5910727361021563,9.604654432493447,-1.8898717898204922
1774158607140150500,9.734150634765625,0.5573319772049784,9.612360769087076,-1.860728843574971
1774158607160143400,9.754143310546874,0.5051330399448052,9.623342181828617,-1.8183821323633194
1774158607180137500,9.774137451171875,0.45392336945030837,9.634759647899866,-1.7708019044123589
1774158607200131300,9.79413134765625,0.406122740214318,9.64517758153975,-1.7251093899041414
1774158607220125400,9.81412548828125,0.36507637101151047,9.654394907218217,-1.682186778500676
1774158607240119600,9.83411962890625,0.3301846885135397,9.66302654196322,-1.639295439018309
1774158607260113400,9.854113525390625,0.3006095796621404,9.669451606574654,-1.6067673803791402
1774158607280106500,9.8741064453125,0.2844678067490458,9.672848847797512,-1.5891640652798116
1774158607300100400,9.894100341796875,0.2800017672508955,9.673649058264493,-1.5850912628829479
1774158607320094500,9.914094482421875,0.2830364587716758,9.672342067319153,-1.5925079688802362
1774158607340088300,9.93408837890625,0.28838974769944326,9.67044938544035,-1.6030096352808176
1774158607360082200,9.954082275390626,0.3051287375870161,9.666881463825701,-1.6213219754323362
1774158607380076300,9.974076171875,0.34963965936154123,9.666154903116821,-1.6166544220127164
1774158607400070100,9.994070068359376,0.38344997636359185,9.666454178324342,-1.6071880900092421
1774158607420063200,10.014063232421876,0.3928813466515392,9.664937928542495,-1.6139992313288152
1774158607440057300,10.034057373046876,0.4034826375016942,9.663060444232821,-1.6226014938488602
1774158607460051200,10.05405126953125,0.4764799230428412,9.65877414521575,-1.6283176795385776
1774158607480045300,10.07404541015625,0.5717203853784129,9.660922263160348,-1.5843351838186381
1774158607500039400,10.094039306640624,0.6212219002481549,9.6757059907943,-1.471464445311576
1774158607520033300,10.114033203125,0.6779648741461336,9.6893025544703,-1.352091046912223
1774158607540026000,10.134026123046874,0.769330906201154,9.694101479184628,-1.2660700291469693
1774158607560020200,10.154020263671875,0.8901558185830711,9.689635147425532,-1.2202370832547544
1774158607580014300,10.174014404296875,1.0117870058465748,9.683245154127478,-1.1753489439319817
1774158607600008200,10.19400830078125,1.0552353946898132,9.683972299358247,-1.1302896127607673
1774158607620002300,10.214002197265625,0.9882058584466576,9.693425771880149,-1.1096548210110515
1774158607639996400,10.233996337890625,0.8801570602033286,9.703670687040686,-1.111066222178936
1774158607659989200,10.2539892578125,0.816812934474647,9.707568863523006,-1.1253029834546149
1774158607679983400,10.2739833984375,0.8029081816323101,9.703728554707766,-1.167649913861975
1774158607699977200,10.293977294921875,0.800946891496703,9.693992758113145,-1.2471446716636418
1774158607719971000,10.31397119140625,0.821849321206659,9.679963648238777,-1.3391295662693679
1774158607739965200,10.333965087890626,0.8554954240903258,9.6669212113142,-1.4103661257483064
1774158607759959300,10.353959228515626,0.8614861889377236,9.655325466066598,-1.4842245581634341
1774158607779952400,10.373952392578126,0.8529374101705849,9.643376669597625,-1.5646578389242292
1774158607799946200,10.3939462890625,0.844890443445742,9.630444707310199,-1.646537372970581
1774158607819940400,10.4139404296875,0.8214307304684072,9.620250645554066,-1.7165176487781106
1774158607839934500,10.4339345703125,0.7914697458382696,9.607543139672279,-1.799738952822238
1774158607859928300,10.45392822265625,0.7700727375444024,9.59299497435987,-1.884628774600476
1774158607879922200,10.473922119140624,0.7518761327270418,9.579145312705636,-1.9608746866740285
1774158607899915300,10.493915283203124,0.7310495447322726,9.571739420363306,-2.00443369628489
1774158607919909000,10.5139091796875,0.7243290043056011,9.56567325219214,-2.035585205873847
1774158607939903200,10.5339033203125,0.7234417731422931,9.561668692725897,-2.0546330206930636
1774158607959897300,10.5538974609375,0.708456020130217,9.559819849988818,-2.0684157545909283
1774158607979891200,10.57389111328125,0.6878223243590444,9.558428103369474,-2.081765942290425
1774158607999885300,10.59388525390625,0.6574395341202617,9.556865676358342,-2.0986839054740964
1774158608019878100,10.613878173828125,0.5966395399164408,9.558830838951469,-2.107881357408315
1774158608039872300,10.633872314453125,0.5546873809803277,9.562559504085778,-2.1024134473912417
1774158608059866000,10.6538662109375,0.5547395130263642,9.566905424335598,-2.082538680228591
1774158608079860200,10.673860107421875,0.5398018369397148,9.575059504696727,-2.048714005907625
1774158608099854300,10.693854248046875,0.5262661731380969,9.588960019755364,-1.9862717243894934
1774158608119848200,10.71384814453125,0.5682252002064139,9.601289339974523,-1.913828127208352
1774158608139842300,10.73384228515625,0.6272636646304279,9.610781975463032,-1.8465683624058962
1774158608159835400,10.75383544921875,0.6542902032438666,9.621462943953276,-1.7803775420092045
1774158608179829200,10.773829345703126,0.6624755555260926,9.631445993307233,-1.722427165082842
1774158608199823400,10.7938232421875,0.6653785104259848,9.634176879575849,-1.7059565072752534
1774158608219817200,10.813817138671874,0.6560957182958722,9.630707742160558,-1.7289786325529217
1774158608239811000,10.83381103515625,0.6324373409412801,9.623758945935965,-1.775849397060275
1774158608259805200,10.85380517578125,0.6082359062185511,9.616786768835782,-1.8215012872971594
1774158608279798300,10.87379833984375,0.5861289960896596,9.609285014903545,-1.8677474901653826
1774158608299792100,10.893792236328125,0.5538942943738773,9.600868484213947,-1.9201386255294084
1774158608319786000,10.913785888671875,0.5106923911049962,9.590672668892145,-1.9820690120026467
1774158608339780000,10.933780029296875,0.4598588969791308,9.581097615817189,-2.039968973916024
1774158608359774200,10.953774169921875,0.40915421686470504,9.576987842410801,-2.0698433031760155
1774158608379767800,10.973767822265625,0.3583405599504709,9.577707973378896,-2.07593343674466
1774158608399761000,10.993760986328125,0.3043983592195436,9.583551438710092,-2.057496885691583
1774158608419755000,11.013755126953125,0.24664871076336128,9.5937016613245,-2.0175376541383563
1774158608439749000,11.0337490234375,0.18987733275480567,9.601104046535491,-1.9882440473757683
1774158608459743000,11.053742919921875,0.14727808982050045,9.603298926231265,-1.9812429364420472
1774158608479737000,11.073737060546875,0.12058231753138825,9.603855391070246,-1.9803613313019275
1774158608499731000,11.09373095703125,0.09623539165705441,9.606220951157807,-1.97019240398705
1774158608519724000,11.11372412109375,0.08952550962171517,9.605651042315364,-1.9732804331302642
1774158608539718000,11.1337177734375,0.1028553486529272,9.60202057685852,-1.9902230923637747
1774158608559712000,11.1537119140625,0.11458425529352388,9.600680268165469,-1.9960513601258396
1774158608579705900,11.173705810546876,0.15902546369954942,9.603173838546871,-1.9809452686697244
1774158608599700000,11.193699951171874,0.22005517500601707,9.605995910230279,-1.9613202384844421
1774158608619693000,11.213693115234374,0.25025986873153594,9.607857027927041,-1.9485520884566008
1774158608639687200,11.233687255859374,0.26759983845325186,9.610955578464269,-1.9308806765571236
1774158608659681000,11.253680908203124,0.3215932396484539,9.613700493258238,-1.908854138188064
1774158608679675100,11.273675048828125,0.3949186611654237,9.617953474527598,-1.8733418030411004
1774158608699669200,11.293669189453125,0.4593695790922269,9.631305708053707,-1.7881011219985783
1774158608719662800,11.313662841796875,0.5277457807039841,9.64517758153975,-1.6918635383844374
1774158608739656000,11.333656005859375,0.598935980290547,9.650352938351034,-1.637795848110318
1774158608759650000,11.353650146484375,0.6787204417537898,9.646565236505866,-1.6289565619640052
1774158608779644000,11.373643798828125,0.7683000287834555,9.638965867418051,-1.6341583683907985
1774158608799638000,11.393637939453125,0.8534352036248892,9.631347209107876,-1.6368163355536758
1774158608819632000,11.413632080078125,0.8951593259587883,9.626597384232282,-1.6424636937908828
1774158608839626000,11.4336259765625,0.8961535976931452,9.624648003730178,-1.6533118355415761
1774158608859618800,11.453618896484375,0.8890545062776655,9.620812955611944,-1.6792719139672814
1774158608879613000,11.473613037109375,0.8851067184999585,9.613799861979484,-1.7209997626282274
1774158608899607000,11.49360693359375,0.8640432530093938,9.60483738784492,-1.780700051961839
1774158608919601000,11.513600830078126,0.8589546976987272,9.59206090838015,-1.8506646918088197
1774158608939595000,11.533594970703126,0.8616627145484089,9.576170680809021,-1.9299927878066896
1774158608959589000,11.553589111328124,0.8900354070737957,9.563219429299235,-1.9806693743377923
1774158608979582000,11.57358203125,0.9342582874208688,9.548187864384055,-2.032160053730756
1774158608999576000,11.593576171875,0.9383269250992685,9.53389045896232,-2.09638746509999
1774158609019570200,11.613570068359374,0.9088586193569004,9.522019403904675,-2.1622902623355387
1774158609039563800,11.633563720703124,0.8721450186613947,9.511204579901694,-2.2241299017854033
1774158609059558000,11.653557861328125,0.8263777584165334,9.503094338682294,-2.275668073581904
1774158609079552000,11.673552001953125,0.7846721946526318,9.494835044381022,-2.324387680826336
1774158609099545000,11.693545166015625,0.7604491691526025,9.484819261801242,-2.3728249639980494
1774158609119539000,11.7135390625,0.7445568957548588,9.475137825742364,-2.416148411287367
1774158609139533000,11.733532958984375,0.7434250421807169,9.465417811238765,-2.454298985983431
1774158609159527200,11.753527099609375,0.7645759667590261,9.45110403920412,-2.502489308656752
1774158609179521000,11.77352099609375,0.7774748304944485,9.442571773180365,-2.5305653563231227
1774158609199515100,11.79351513671875,0.7879223555549979,9.435850355970858,-2.552310447402298
1774158609219508000,11.813508056640625,0.823290021534264,9.430805347540973,-2.5597820984572173
1774158609239502000,11.833502197265625,0.8584436063714325,9.424835040959715,-2.570203831489384
1774158609259496000,11.853495849609375,0.8876829987287521,9.422280095779895,-2.5696415214315054
1774158609279490000,11.873489990234376,0.9567149608355014,9.425528868442774,-2.532685124956071
1774158609299484700,11.893484619140626,1.039954311992973,9.433865904155374,-2.4679993022948503
1774158609319477800,11.913477783203126,1.1212954283136873,9.443151618894934,-2.3958292613580823
1774158609339472000,11.933471923828124,1.1932076950971036,9.450938619509339,-2.32945796982795
1774158609359465700,11.9534658203125,1.2276076120227575,9.458855383983254,-2.278907932285964
1774158609379459800,11.9734599609375,1.2325960679598151,9.465449959942697,-2.2486333516620096
1774158609399454000,11.993453857421875,1.2551060059316455,9.462257885903119,-2.2496165174804625
1774158609419447800,12.01344775390625,1.2959015421785414,9.453055173271894,-2.2651243216052652
1774158609439440600,12.033440673828125,1.2989184057816863,9.44942353877127,-2.2785049044430257
1774158609459434800,12.053434814453125,1.2200298702448606,9.461482809877396,-2.2720684416547416
1774158609479428900,12.073428955078125,1.1013147896237672,9.482499294421077,-2.244926021576673
1774158609499422700,12.093422607421875,0.9921828723188489,9.504636307427287,-2.2017866986826062
1774158609519416800,12.113416748046875,0.8752994641043246,9.52647112261653,-2.1565303836345673
1774158609539410000,12.133409912109375,0.722676195597276,9.548145778807998,-2.116852891632169
1774158609559403800,12.15340380859375,0.5250911745419725,9.567119359347224,-2.0892263412989673
1774158609579398000,12.17339794921875,0.31058819030299784,9.584605331677198,-2.051642460574955
1774158609599392000,12.19339208984375,0.13656763950744644,9.599439912715553,-2.000619544824213
1774158609619385900,12.2133857421875,-0.025162564522598404,9.612721419093011,-1.9404460850208998
1774158609639379700,12.233379638671876,-0.1818864801313728,9.619072249424457,-1.9002010222636163
1774158609659372800,12.253372802734376,-0.3418979591935873,9.617087213087082,-1.88815066511631
1774158609679367000,12.273366943359376,-0.4979235104247927,9.61047042529583,-1.887142803248018
1774158609699360800,12.29336083984375,-0.5808934335237369,9.60998351856172,-1.8657905108787118
1774158609719355000,12.31335498046875,-0.59359984342698,9.618196635633707,-1.8188788298390806
1774158609739349000,12.333348876953124,-0.6070035514120012,9.626653498333692,-1.7690310953475534
1774158609759342800,12.3533427734375,-0.6619259588193148,9.631968555876613,-1.7197113302528857
1774158609779335700,12.373335693359374,-0.7427881325166672,9.633047583284974,-1.6801903439864516
1774158609799329800,12.393329833984374,-0.8053605432204902,9.631441317132115,-1.66045673886016
1774158609819324000,12.413323974609375,-0.8247628705658018,9.63199018318653,-1.647700425400585
1774158609839317800,12.43331787109375,-0.8209638436090201,9.637819619992374,-1.6151912175923584
1774158609859311900,12.453311767578125,-0.824795165400207,9.647361939841508,-1.555148252300918
1774158609879305000,12.473304931640625,-0.8360079757448285,9.663537414094804,-1.4448242756672203
1774158609899298800,12.493298828125,-0.8470156919714062,9.684768418172002,-1.287708444981277
1774158609919293000,12.51329296875,-0.8188272699717432,9.703856565001606,-1.1554646052233875
1774158609939287000,12.533287109375,-0.7446309839043765,9.721171856939792,-1.0558050112713129
1774158609959280600,12.55328076171875,-0.6204266582172364,9.737427410691977,-0.983851681825146
1774158609979274800,12.573274658203125,-0.4799854469457641,9.748634448882937,-0.9508565901961177
1774158609999267800,12.593267822265625,-0.3641925008490681,9.752464236304164,-0.9629066550824791
1774158610019262000,12.613261962890626,-0.27695549489017574,9.750039054983853,-1.0150997105911372
1774158610039255800,12.633255859375,-0.22065692202514037,9.743339849606155,-1.0904239047098905
1774158610059250000,12.65325,-0.20837153227925298,9.734461546623706,-1.1692853330440818
1774158610079243800,12.673243896484376,-0.25184746671654284,9.723679455846547,-1.2477929064393043
1774158610099238000,12.69323779296875,-0.35199915503449736,9.710869658634065,-1.3211593175537883
1774158610119230700,12.713230712890624,-0.4726267912786454,9.695036129686235,-1.3976095200277865
1774158610139224800,12.733224853515624,-0.5883602622730657,9.677564185881614,-1.4727463018156588
1774158610159218700,12.75321875,-0.684978917626664,9.658529230543971,-1.5537093055389821
1774158610179212800,12.773212890625,-0.7114900540638714,9.636900751581788,-1.6716206685617565
1774158610199207000,12.79320703125,-0.7004460244148969,9.615033787688612,-1.7974623861923813
1774158610219200800,12.81320068359375,-0.6872322495114058,9.593532149976491,-1.9136941255651414
1774158610239193900,12.83319384765625,-0.6793705762255936,9.573035305392741,-2.016389653147012
1774158610259188000,12.85318798828125,-0.6929273924130946,9.553170913493632,-2.1040834264300763
1774158610279182000,12.87318212890625,-0.7313171096272766,9.531530159571766,-2.1875798941537736
1774158610299174700,12.893174560546875,-0.7780623480588197,9.51167862715423,-2.2567606901466846
1774158610319168500,12.91316845703125,-0.8039605402294546,9.497833641675115,-2.3054753289550542
1774158610339161300,12.933161376953125,-0.7974180597834288,9.491057279407977,-2.335456917981803
1774158610359155500,12.953155517578125,-0.7711726616103202,9.488132331871986,-2.3560605839408932
1774158610379149300,12.9731494140625,-0.7645136421125381,9.484353397855163,-2.3733858127512035
1774158610399143400,12.993143310546875,-0.795658575830236,9.478753678151964,-2.3854819087363777
1774158610419137500,13.013137451171875,-0.7968987851496785,9.48266062246263,-2.36949406600967
1774158610439131400,13.03313134765625,-0.7173983282595873,9.506107549023628,-2.299926462656259
1774158610459124500,13.05312451171875,-0.6164326932102442,9.538809210664033,-2.191239877966046
1774158610479118600,13.07311865234375,-0.5274553829226643,9.568287234082817,-2.08328146141991
1774158610499112400,13.093112548828126,-0.46132714290078725,9.591107553178071,-1.9920473851814864
1774158610519106300,13.113106201171876,-0.4282957743819803,9.605010406324267,-1.9315040691524743
1774158610539100400,13.133100341796874,-0.43602110793702303,9.610213820186257,-1.9036999702952802
1774158610559094500,13.153094482421874,-0.47153347961660474,9.610205052357912,-1.8952542135111987
1774158610579087600,13.173087646484374,-0.5097050240354613,9.61059960463345,-1.8833407806165516
1774158610599081500,13.19308154296875,-0.5384219268886372,9.613706922999024,-1.8593321285195648
1774158610619075600,13.21307568359375,-0.5478608594285324,9.6174262357831,-1.8372082672558723
1774158610639069400,13.2330693359375,-0.550956962280348,9.62126654459834,-1.8160545661985874
1774158610659063600,13.2530634765625,-0.551085228302516,9.626160161858797,-1.7898912202857433
1774158610679056400,13.273056396484375,-0.5624737240076064,9.630746905127166,-1.761454961004853
1774158610699050500,13.293050537109375,-0.5794327133214101,9.635356444749236,-1.7304779311999678
1774158610719044400,13.31304443359375,-0.5904543850081041,9.639720485177635,-1.7022259424448012
1774158610739038500,13.33303857421875,-0.6050850775048137,9.642917235392332,-1.678805611629784
1774158610759032600,13.353032470703125,-0.633376156161353,9.644687167674302,-1.6580809496395288
1774158610779026400,13.3730263671875,-0.6593757628798484,9.646395725157856,-1.6378860106118023
1774158610799019500,13.39301953125,-0.6725159610904753,9.648871759882569,-1.6178309184461832
1774158610819013400,13.413013427734375,-0.6893565481889993,9.650040219140052,-1.60371398415789
1774158610839007500,13.433007568359375,-0.7200576105967164,9.649396660539507,-1.594064404541999
1774158610859001300,13.45300146484375,-0.7483613295391202,9.648614570251107,-1.5857362827882169
1774158610878995500,13.472995361328126,-0.7642639051351696,9.64935515948534,-1.5736036541849374
1774158610898989300,13.4929892578125,-0.7818209699399769,9.649499536392092,-1.564064549206197
1774158610918982400,13.512982421875,-0.8093697788618505,9.648873513448239,-1.5538764787994324
1774158610938976500,13.5329765625,-0.8421113341212272,9.648908000239729,-1.5361619584105908
1774158610958970600,13.552970703125,-0.8780739703189581,9.648651979652046,-1.5175240395665168
1774158610978964500,13.572964599609374,-0.8492378250002861,9.655447046619653,-1.4904761659041046
1774158610998958600,13.59295849609375,-0.7635808182418345,9.672398181420563,-1.4254974977761505
1774158611018951400,13.612951416015624,-0.7095807133112102,9.692176648601889,-1.3147550034694373
1774158611038945500,13.632945556640625,-0.6754751031570136,9.706863930124044,-1.2210222422830759
1774158611058939400,13.652939453125,-0.6703207891337574,9.713125328606367,-1.1731398895803837
1774158611078933500,13.67293359375,-0.6432823408868164,9.715623575162887,-1.1675667656231672
1774158611098927600,13.692927734375,-0.5798158308874816,9.7181732596457,-1.179539016032964
1774158611118921500,13.71292138671875,-0.5128217678165063,9.718988083159923,-1.2036048051446675
1774158611138914600,13.73291455078125,-0.4694216385617852,9.71794938776195,-1.2294321971014142
1774158611158908400,13.752908447265625,-0.4696969118392095,9.716272978982328,-1.2425099976003169
1774158611178902300,13.77290234375,-0.4948030037840828,9.71401438640058,-1.2503954901531338
1774158611198896400,13.792896484375,-0.5196507370537147,9.711544781416654,-1.2594533874861895
1774158611218890500,13.812890380859375,-0.5230823920028284,9.708314128932356,-1.2827284646116197
1774158611238883600,13.832883544921875,-0.5295850518951192,9.7019866794765,-1.327169079362601
1774158611258877400,13.85287744140625,-0.5465315470535308,9.69409563396573,-1.3770176906369627
1774158611278871600,13.87287158203125,-0.5597336315192282,9.686377022412419,-1.4251955922201276
1774158611298866000,13.892865966796874,-0.5790860187755897,9.677596919107437,-1.4761983419656752
1774158611318860000,13.912860107421874,-0.5951498128153383,9.66820949755907,-1.5303376361712813
1774158611338854100,13.932854248046874,-0.6069568261934444,9.658928458994627,-1.583387235444039
1774158611358847200,13.95284716796875,-0.6276135740466415,9.648299512952565,-1.6391529618076979
1774158611378841000,13.972841064453124,-0.66578373022601,9.637225745752453,-1.6884920161247252
1774158611398835200,13.992835205078125,-0.7025655738521367,9.627769935142993,-1.7270831741951405
1774158611418829300,14.012829345703125,-0.7133599395889788,9.622157940480113,-1.7537401488438247
1774158611438823000,14.032822998046875,-0.7080486814383417,9.618571898686886,-1.775417581514269
1774158611458817000,14.052817138671875,-0.6972991777565329,9.61587842181921,-1.7941691898658871
1774158611478810000,14.07281005859375,-0.6843089824758469,9.61399392324686,-1.8092011931724845
1774158611498804000,14.092803955078125,-0.675291197957471,9.613111295193432,-1.8172655494235455
1774158611518798000,14.112798095703125,-0.6541363278564065,9.616166006588935,-1.8088234459012746
1774158611538792200,14.132792236328125,-0.6132647306986153,9.62469885713458,-1.7774885425694287
1774158611558786000,14.1527861328125,-0.5589375492380931,9.63806979536116,-1.7220787900365888
1774158611578779000,14.17277880859375,-0.5135008361218497,9.653402973571419,-1.648802541423589
1774158611598773000,14.19277294921875,-0.47624454338438804,9.665256492972373,-1.5894583720512687
1774158611618767000,14.21276708984375,-0.46344187003243714,9.671182375890016,-1.5568682079613207
1774158611638761000,14.232760986328126,-0.4755287232652306,9.672867552497982,-1.542690775657445
1774158611658755000,14.252755126953126,-0.4967271767796948,9.671236151903868,-1.5462399925716221
1774158611678749200,14.272749267578124,-0.5225713006755337,9.668326986458897,-1.5558808043591676
1774158611698742300,14.2927421875,-0.5561309308521449,9.66384721069634,-1.571985697594285
1774158611718736100,14.312736083984374,-0.5989660101026296,9.65767407501936,-1.5940455537110567
1774158611738730200,14.332730224609374,-0.6332496071722358,9.653170918381214,-1.6080013060882687
1774158611758724000,14.35272412109375,-0.6331614904973656,9.654307813456654,-1.601190310899168
1774158611778718000,14.372718017578125,-0.614645371402055,9.659074589467048,-1.5795210615351796
1774158611798711000,14.3927109375,-0.6214411690220236,9.661616675165295,-1.5612085752531886
1774158611818705200,14.412705078125,-0.649923897793144,9.660074121898413,-1.5591529578976333
1774158611838699000,14.432698974609375,-0.6763903913710266,9.656565236994624,-1.569596756631136
1774158611858693000,14.452693115234375,-0.691284812837839,9.652948800063132,-1.5852825476713477
1774158611878687200,14.472687255859375,-0.7154398876681923,9.649988781213759,-1.5925529770657418
1774158611898681000,14.49268115234375,-0.7430986597705632,9.645341247668862,-1.6079731029070914
1774158611918674000,14.512673828125,-0.7832222150400281,9.639483169290424,-1.6239843265093863
1774158611938668000,14.53266796875,-0.8230247216615826,9.635018591096996,-1.630782900608331
1774158611958662100,14.552662109375,-0.8553628837518393,9.63221522411406,-1.6306922997154294
1774158611978656000,14.572656005859375,-0.8789968573175371,9.6315611441195,-1.6219716715127228
1774158611998650000,14.592650146484376,-0.9012460254613309,9.631777417218684,-1.6084150014556944
1774158612018643200,14.612643310546876,-0.9084791915852576,9.632678165450692,-1.5989200278796254
1774158612038637000,14.632636962890626,-0.8970738543432205,9.63387701984644,-1.5981450979843734
1774158612058631200,14.652631103515626,-0.890325549126789,9.635029112491011,-1.5949669063396752
1774158612078625300,14.672625244140624,-0.9027863867711275,9.636931146720052,-1.5763643510699272
1774158612098619000,14.692618896484374,-0.9047008420903235,9.639748542228341,-1.5579352526709436
1774158612118613000,14.712613037109374,-0.8062035699158906,9.65821358872354,-1.4964366817437111
1774158612138606000,14.732606201171874,-0.6685142511684448,9.687320440742372,-1.3708655977480113
1774158612158600200,14.75260009765625,-0.5417232334563509,9.714394910150766,-1.2277915902875363
1774158612178594000,14.772593994140625,-0.4537919616229832,9.730130239421129,-1.13536435874179
1774158612198588200,14.792588134765625,-0.4215643107024952,9.73553589785695,-1.1009138806726784
1774158612218582300,14.812582275390625,-0.39113990981169044,9.734464469233155,-1.1214233655422925
1774158612238575000,14.8325751953125,-0.34294034438598897,9.729821027341485,-1.1761722430136055
1774158612258569000,14.85256884765625,-0.2915454717840068,9.724297295483947,-1.2342718922175466
1774158612278563000,14.87256298828125,-0.26302505961731076,9.720677935943007,-1.2687164520025254
1774158612298556400,14.892556396484375,-0.2673153224234469,9.716728906056284,-1.2977363563902675
1774158612318550300,14.91255029296875,-0.3103694695184007,9.71153250645697,-1.3267246965959667
1774158612338544400,14.93254443359375,-0.38722379581388083,9.704006787127256,-1.361145583244413
1774158612358537500,14.952537353515625,-0.48284945807475593,9.694322428458928,-1.3990534352257846
1774158612378531300,14.97253125,-0.5879831360563635,9.68234615946114,-1.4411167994514107
1774158612398525400,14.992525390625,-0.673162588430941,9.669965401315688,-1.4862674621678889
1774158612418519600,15.01251953125,-0.6910157135728746,9.660732878068089,-1.5372449313417076
1774158612438513200,15.03251318359375,-0.676592928205803,9.653227032482624,-1.5899056774273514
1774158612458506200,15.05250634765625,-0.6726035663086921,9.64485843258798,-1.6415530086867511
1774158612478500400,15.072500244140626,-0.6949849825300276,9.63534943048656,-1.6874280401550232
1774158612498494500,15.092494384765626,-0.7523434579778462,9.624040685486793,-1.7269059179320931
1774158612518488300,15.11248828125,-0.8134332289084791,9.613649055331944,-1.7568270089432596
1774158612538482400,15.132482421875,-0.8511228350292891,9.605404374077915,-1.7838737135618925
1774158612558476500,15.1524765625,-0.8677845584295689,9.599418869927526,-1.8079039929687977
1774158612578469400,15.172469482421874,-0.8622809925772249,9.59860813806653,-1.8148145030096172
1774158612598463200,15.192463134765624,-0.8436647741083055,9.602516251420974,-1.8028532854504882
1774158612618457300,15.212457275390625,-0.8398979689206928,9.608089667639137,-1.7747076796792447
1774158612638451500,15.232451416015625,-0.8633298440430313,9.611864510002732,-1.7427362320095299
1774158612658445300,15.2524453125,-0.8819845678914338,9.618464931181073,-1.696360119151324
1774158612678438400,15.2724384765625,-0.8660779006421565,9.631503276452422,-1.6292499919526278
1774158612698432500,15.2924326171875,-0.8069766731802374,9.652716744872928,-1.5310922539308667
1774158612718426400,15.31242626953125,-0.7281842184290289,9.676597386676072,-1.4154812768049538
1774158612738420500,15.33242041015625,-0.6460322241168469,9.696002928891778,-1.319303314423561
1774158612758414600,15.35241455078125,-0.5620432236358524,9.711260119256377,-1.2433433796845377
1774158612778408200,15.372408203125,-0.49672662879042323,9.723527480155228,-1.173317438104376
1774158612798401300,15.3924013671875,-0.4833243090448901,9.731903678834438,-1.1076257263362408
1774158612818395400,15.4123955078125,-0.519347260595113,9.733422266703844,-1.077569391572848
1774158612838389500,15.432389404296876,-0.5940905860859901,9.72891443389058,-1.0796611031550913
1774158612858383400,15.45238330078125,-0.710666754982248,9.71869582221508,-1.1010336345948277
1774158612878377500,15.47237744140625,-0.8466899671483784,9.70384955073893,-1.1352501577775924
1774158612898370600,15.49237060546875,-0.9463844862833618,9.688666594654322,-1.18511813133955
1774158612918364200,15.5123642578125,-1.0088087206881493,9.676717213663458,-1.230385552303493
1774158612938358300,15.532358154296874,-1.0710481000453234,9.664791213548183,-1.270837389679253
1774158612958352400,15.552352294921874,-1.1295557455282659,9.65153542613387,-1.3199838440336287
1774158612978346200,15.57234619140625,-1.198672901700437,9.636998951259255,-1.364488610062003
1774158612998340400,15.59234033203125,-1.2623821344144641,9.624422962802647,-1.3954375828161836
1774158613018333400,15.61233349609375,-1.3160966273367405,9.614607671231031,-1.4133677917823195
1774158613038327600,15.63232763671875,-1.3632567301794887,9.605559856900571,-1.4300930088728665
1774158613058321400,15.6523212890625,-1.3945213447540998,9.598191373959184,-1.4492805244237184
1774158613078315500,15.6723154296875,-1.4220283603608608,9.589839725199342,-1.4775560401849448
1774158613098309400,15.692309326171875,-1.4665855872288345,9.574129530370234,-1.534782340620458
1774158613118302500,15.712302490234375,-1.4991453561805188,9.55841641293168,-1.5998874116070567
1774158613138296300,15.73229638671875,-1.5290107714816927,9.546657001554966,-1.6412898277059196
1774158613158290400,15.75229052734375,-1.5557017945304512,9.539495439362526,-1.6577705685161053
1774158613178284300,15.7722841796875,-1.574220032517612,9.536344281855225,-1.6584207029879092
1774158613198278400,15.7922783203125,-1.5911866571485995,9.535575635570288,-1.6466079539887606
1774158613218272500,15.8122724609375,-1.5964219274535774,9.537896187472343,-1.6279957541078327
1774158613238265300,15.832265380859376,-1.5674112292855977,9.548210076215863,-1.5953955070152879
1774158613258259200,15.85225927734375,-1.4965806202590464,9.56858066407144,-1.540417862289399
1774158613278253300,15.87225341796875,-1.4303222875840962,9.590358196115494,-1.4661553791180253
1774158613298247700,15.89224755859375,-1.3590790061034261,9.611537762266398,-1.3934309191688894
1774158613318241300,15.9122412109375,-1.2885634543754159,9.629244683870672,-1.3370229493789374
1774158613338234400,15.932234375,-1.2356613007493316,9.63959832010269,-1.3121217323563992
1774158613358228500,15.952228515625,-1.2001213469430803,9.644060560208558,-1.3123293837577104
1774158613378222600,15.97222265625,-1.204274521099776,9.639784782585501,-1.3396496446207165
1774158613398216400,15.992216552734375,-1.2386994994014502,9.630656304234266,-1.3734788489863277
1774158613418210600,16.01221044921875,-1.2648109689965843,9.62318611448407,-1.40175231892094
1774158613438204400,16.032204345703125,-1.2856561886265874,9.617866380766033,-1.419196936327219
1774158613458197200,16.052197265625,-1.2926837491758167,9.615462242233752,-1.429068342000246
1774158613478191400,16.07219140625,-1.287508538495004,9.615600189399718,-1.4328051904410124
1774158613498185500,16.092185546875,-1.2610942865610122,9.619740942466258,-1.4284984331578015
1774158613518179300,16.112179443359373,-1.2172330791331827,9.628623337101935,-1.406532538934797
1774158613538173400,16.13217333984375,-1.1511324212379752,9.64338777551353,-1.3602781527601182
1774158613558166500,16.15216650390625,-1.1002507405888289,9.652100074279307,-1.3404448866516352
1774158613578160600,16.17216064453125,-1.0731592469803988,9.657188921850919,-1.3256728494554757
1774158613598154500,16.192154541015626,-1.0448916953299194,9.66477952311039,-1.2925183294810354
1774158613618148600,16.212148681640624,-1.039128820954263,9.662601010027528,-1.3132985210508108
1774158613638142500,16.232142578125,-1.0298838035512714,9.653833181682229,-1.3831887804873286
1774158613658136300,16.25213623046875,-1.0292070733334868,9.64131447637081,-1.4683850378662346
1774158613678129400,16.27212939453125,-1.0406403945609926,9.62910030696392,-1.5387933298274874
1774158613698123500,16.29212353515625,-1.0463832490619271,9.621877369973063,-1.579540935279429
1774158613718117400,16.312117431640626,-1.0603208081953226,9.616654666888714,-1.6018981669075787
1774158613738111500,16.332111572265624,-1.0706381310049444,9.613027708563209,-1.616726318205148
1774158613758105600,16.352105712890626,-1.0601518813692032,9.611602644196152,-1.6320369923226534
1774158613778098700,16.3720986328125,-1.049854140042886,9.607622050127386,-1.6618677747018635
1774158613798092300,16.39209228515625,-1.0234763476617634,9.60668389249444,-1.683600444690883
1774158613818086400,16.41208642578125,-0.9777476658616214,9.613286651760339,-1.6730550852790473
1774158613838080500,16.43208056640625,-0.9160833099134266,9.62816857907176,-1.6215879328921436
1774158613858074400,16.452074462890625,-0.8379295914571732,9.649605919376015,-1.5340687855236232
1774158613878068500,16.472068359375,-0.738160984172672,9.67451239709556,-1.4245308447010814
1774158613898061600,16.4920615234375,-0.6518944672137499,9.695954998096823,-1.3167628361605106
1774158613918055400,16.512055419921875,-0.6135240392219274,9.710606039261817,-1.2239661137152462
1774158613938049500,16.532049560546874,-0.5986449249221012,9.72346727440059,-1.125254541203007
1774158613958043600,16.552043701171876,-0.596966762576811,9.731891988396644,-1.0508514074519275
1774158613978037200,16.572037353515626,-0.6009144772892817,9.733470782020687,-1.033854972204566
1774158613998030300,16.5920302734375,-0.6267700358945876,9.731659348684548,-1.0355384683120996
1774158614018024400,16.6120244140625,-0.6774786249991506,9.728090258026123,-1.0371532100323586
1774158614038018600,16.6320185546875,-0.725332628390193,9.726680975750089,-1.0178129881378262
1774158614058012400,16.652012451171874,-0.7548620897352695,9.728484225779772,-0.978332187751308
1774158614078006500,16.672006591796876,-0.7705112750921398,9.731017543649672,-0.9401929381668567
1774158614098000600,16.692000732421874,-0.7870499566346406,9.73249755307436,-0.9107165221832693
1774158614117993500,16.711993408203124,-0.8155553356289863,9.73303414416909,-0.8793738739363849
1774158614137987300,16.7319873046875,-0.8441316609676927,9.733835523679852,-0.8427874798171222
1774158614157981400,16.7519814453125,-0.8609502554301172,9.734821027585863,-0.8138836030244827
1774158614177975300,16.771975341796875,-0.887790769952163,9.735105105224251,-0.7809837153982371
1774158614197969400,16.791969482421877,-0.924729703836143,9.73410031209588,-0.7500306509908288
1774158614217962500,16.81196240234375,-0.918115765589103,9.736249014562368,-0.7299880529806018
1774158614237956600,16.83195654296875,-0.8761557156074792,9.741367672750354,-0.7131021654356271
1774158614257950500,16.851950439453127,-0.8242831242248415,9.746503282073139,-0.7047120843615382
1774158614277944600,16.871944580078125,-0.7345769882060587,9.754230076932906,-0.6969703841935843
1774158614297939000,16.89193896484375,-0.6070881609555333,9.763727973118424,-0.6866210588105023
1774158614317932500,16.9119326171875,-0.5296999104464426,9.770029703611135,-0.6605644612077624
1774158614337925600,16.931925537109375,-0.4893961763044819,9.775124980923533,-0.6146444215539842
1774158614357919700,16.951919677734374,-0.4293601156778633,9.781398654365539,-0.5570420543476939
1774158614377913600,16.97191357421875,-0.35302798662558194,9.78721698525548,-0.5060804768627509
1774158614397907700,16.99190771484375,-0.27015682945968583,9.791996036225557,-0.46285252583716063
1774158614417901800,17.01190185546875,-0.2681691627738066,9.79424527645707,-0.4137921788636595
1774158614437895000,17.03189501953125,-0.24888158438196403,9.798712192738055,-0.30606950730215754
1774158614457888500,17.051888427734376,-0.06511740987836383,9.804924491381644,-0.17199949329672382
1774158614477882600,17.071882568359374,0.11491063770367763,9.805720025673509,-0.07083930378966033
1774158614497876700,17.091876708984376,0.19647260283399373,9.804611187648772,-0.03716476026279852
1774158614517870600,17.11187060546875,0.1673771307257004,9.805019768449663,-0.06311559593612327
1774158614537863700,17.13186376953125,0.08245855777701362,9.805689630535245,-0.10963367454828694
1774158614557857800,17.15185791015625,0.013705094092880607,9.805314952003956,-0.16120918268049134
1774158614577851600,17.1718515625,-0.046708861077064644,9.804984112614394,-0.17461270800242198
1774158614597845800,17.191845703125,-0.09278972644889727,9.804622293564677,-0.17644111073967067
1774158614617839900,17.21183984375,-0.11050441123452037,9.803918529209493,-0.20338654694091526
1774158614637833700,17.231833740234375,-0.17578763353331014,9.801931739306449,-0.24824023600481449
1774158614657826600,17.25182666015625,-0.28695313902506603,9.798193137300014,-0.2888459305017255
1774158614677820700,17.271820556640623,-0.3905542919434607,9.793978149953483,-0.30959622012358157
1774158614697814800,17.291814697265625,-0.46292347218152136,9.788867675071954,-0.3662963412605226
1774158614717808600,17.31180859375,-0.5223335463969037,9.78240461653769,-0.44959516752026973
1774158614737802800,17.331802734375,-0.5808665089841931,9.77449428180456,-0.5406066505165771
1774158614757795800,17.3517958984375,-0.6337918973553925,9.766691499099135,-0.6167858905620872
1774158614777790000,17.3717900390625,-0.67500390544869,9.75976082305312,-0.6795866301290691
1774158614797783600,17.391783447265624,-0.7231431555218995,9.752567696678637,-0.731357441637665
1774158614817777700,17.411777587890626,-0.7814330666009336,9.744631058460474,-0.7758440874874591
1774158614837771800,17.431771728515624,-0.8122938496150076,9.738760120600462,-0.8167749405518173
1774158614857764600,17.4517646484375,-0.7942947401311248,9.73764368379116,-0.8472174250885843
1774158614877758700,17.4717587890625,-0.7416077636256814,9.739685418751835,-0.8711725934326648
1774158614897752800,17.4917529296875,-0.7179973901312798,9.740062435370684,-0.8865968839924782
1774158614917746700,17.51174658203125,-0.7003567386962473,9.740751002156735,-0.8931111612573266
1774158614937740800,17.53174072265625,-0.6651493047799915,9.74169149787724,-0.9096163058564066
1774158614957735000,17.55173486328125,-0.6707086194075643,9.739449271908402,-0.929344650285691
1774158614977727700,17.571727783203126,-0.6712684452474117,9.739446933820844,-0.9289484175097197
1774158614997721600,17.5917216796875,-0.5974249181404709,9.749815183100104,-0.8686574688065797
1774158615017715700,17.6117158203125,-0.5007556285781786,9.761763395047188,-0.7922043437231332
1774158615037709800,17.631709716796873,-0.4131804767061025,9.773533327817916,-0.6911741920702159
1774158615057703700,17.65170361328125,-0.3279377133043483,9.78299965982139,-0.5964537350207567
1774158615077696800,17.67169677734375,-0.23822998811667784,9.787389419212937,-0.5662407118583098
1774158615097691000,17.69169091796875,-0.17123177859354763,9.788565477254986,-0.5701457199402153
1774158615117684500,17.7116845703125,-0.14903535441714338,9.788272047266364,-0.581322874449566
1774158615137678600,17.7316787109375,-0.138159119083127,9.788919697520136,-0.5730198871370404
1774158615157672700,17.751672607421874,-0.12246184766767546,9.7908714161098,-0.5424371904119849
1774158615177665800,17.771665771484376,-0.16632820619465782,9.788606393787264,-0.570871330801025
1774158615197659600,17.79165966796875,-0.2748661761944182,9.784413618272543,-0.600043978065066
1774158615217653800,17.81165380859375,-0.3883848024172708,9.779826875004172,-0.6119907652400434
1774158615237648000,17.83164794921875,-0.40275410403143613,9.778184368494152,-0.62871444796063
1774158615257641700,17.851641845703124,-0.37797198334392157,9.780878429883717,-0.6016218949062749
1774158615277634600,17.871634521484374,-0.4007719537708908,9.783991008946298,-0.5322480605592951
1774158615297629200,17.891629150390624,-0.4599140246998518,9.785273449972271,-0.4553145315477624
1774158615317622800,17.911622802734374,-0.6273881677929312,9.778892809024452,-0.3873282060364261
1774158615337617000,17.931616943359376,-0.7428754454739391,9.772586402356625,-0.33923538892082866
1774158615357611000,17.951611083984375,-0.7704985617410391,9.771012284907698,-0.3225376443590969
1774158615377604900,17.97160498046875,-0.7121181958995759,9.775586753216386,-0.31811683224216103
1774158615397598000,17.991597900390627,-0.593823386517167,9.78363445059359,-0.31347930863462387
1774158615417592000,18.011592041015625,-0.5134143999474123,9.788350373199581,-0.30819135829433797
1774158615437586200,18.031586181640623,-0.5254301972379908,9.787394679909944,-0.31811906073186547
1774158615457580000,18.051580078125,-0.559678430733271,9.784910461878775,-0.33564583999626335
1774158615477574100,18.07157421875,-0.5074216258060187,9.788357387462257,-0.31774898531045764
1774158615497567000,18.09156689453125,-0.4618696157470345,9.791443663039804,-0.2910371934683062
1774158615517560800,18.111560791015624,-0.44872375498060135,9.792481773915886,-0.27627852721037344
1774158615537555000,18.131554931640625,-0.398873170944862,9.795036719095707,-0.26177968093240633
1774158615557549000,18.151549072265624,-0.30365311207650225,9.798784088930487,-0.2490090466865338
1774158615577543000,18.17154296875,-0.19218739979546515,9.802398187774418,-0.21552392478454857
1774158615597536000,18.191535888671876,-0.08018321498986333,9.805445884907245,-0.13112421547765843
1774158615617530000,18.211530029296874,0.014333142313751159,9.806597977551817,-0.028401820438459978
1774158615637524200,18.231524169921876,0.06302576222820207,9.806381119930744,0.035801924644107926
1774158615657517800,18.251517822265626,0.06310354473872576,9.806378197321296,0.036518308735557364
1774158615677512000,18.271511962890624,0.05395948522586841,9.80649802430868,0.008110097943039726
1774158615697505000,18.291505126953126,0.029592238082713447,9.806589209723471,-0.017597118253982625
1774158615717499100,18.3114990234375,-0.030781379368621853,9.806560568150877,-0.028288162896956782
1774158615737493000,18.331492919921875,-0.08972019194359891,9.806218038323522,-0.021045411527354736
1774158615757487000,18.351487060546877,-0.11006272274847141,9.806001180702447,0.025131772092112804
1774158615777481000,18.37148095703125,-0.12252716798884794,9.805462251520156,0.09094482010141945
1774158615797475000,18.39147509765625,-0.15275003669187426,9.804596574601531,0.13011430778275243
1774158615817468000,18.411468017578127,-0.18742303493786602,9.804349906364083,0.09988590438808313
1774158615837462000,18.4314619140625,-0.21080411145472897,9.804296130350231,0.04175728025140706
1774158615857455900,18.451455810546875,-0.2319088588037528,9.803903916162252,-0.008451032322464743
1774158615877450000,18.471449951171873,-0.26804102461580187,9.80288334094286,-0.04495445972436573
1774158615897444000,18.491444091796875,-0.2978809036169201,9.80185692050457,-0.07252065360588021
1774158615917437200,18.511437255859374,-0.3134524936929345,9.801119838401675,-0.1008257242551539
1774158615937431000,18.53143115234375,-0.3287228723326698,9.800053670474886,-0.14585502561428584
1774158615957425200,18.551425048828126,-0.3550050588522106,9.797820212334393,-0.2170215429311618
1774158615977419000,18.5714189453125,-0.4051647453697398,9.793640880823135,-0.3014409524523653
1774158615997412900,18.591412841796874,-0.4543997182577848,9.788933726045489,-0.3750867832964286
1774158616017406000,18.611406005859376,-0.5285187378378585,9.783370246699452,-0.4204114874055609
1774158616037400000,18.631400146484374,-0.6352780442599206,9.776407421949505,-0.4343652304887771
1774158616057394000,18.651393798828124,-0.7079366724312305,9.770259420713781,-0.4596187680803239
1774158616077388000,18.671387939453126,-0.7181142214439808,9.769304311946033,-0.46408276175186036
1774158616097382100,18.691382080078125,-0.6960413597151637,9.771481655985117,-0.45172753990646447
1774158616117375000,18.711375,-0.668234703574702,9.77468015976548,-0.42361112369708714
1774158616137368800,18.731368896484376,-0.6366886417102068,9.778684134709835,-0.37726884004324673
1774158616157363000,18.751363037109375,-0.5996420827332883,9.783365570524335,-0.3107486780943349
1774158616177357000,18.771357177734377,-0.56589978946615,9.788387782600521,-0.19390403098762035
1774158616197351000,18.791350830078127,-0.5254537973092869,9.792562437936663,0.003701678945973981
1774158616217344000,18.811343994140625,-0.5054191634098067,9.79085154236555,0.23269222773378714
1774158616237338000,18.831338134765623,-0.5031479305421933,9.783750770449638,0.44213009233660994
1774158616257332000,18.85133203125,-0.49741453798934815,9.77468249785304,0.615252251254022
1774158616277326000,18.871326171875,-0.4800997575078159,9.766157830613851,0.7496968159265816
1774158616297320400,18.891320556640625,-0.474449988117814,9.759791802713274,0.831709255637601
1774158616317313500,18.9113134765625,-0.4748278449868783,9.753562552934884,0.9016236996673047
1774158616337307400,18.931307373046874,-0.4717486932698637,9.747598091572522,0.9654965985104441
1774158616357301200,18.95130126953125,-0.4688122014265507,9.742190679571031,1.019964101757109
1774158616377295400,18.97129541015625,-0.4693550030663609,9.736782683047652,1.0701116959780455
1774158616397289200,18.991289306640624,-0.4776036298431456,9.72891677197814,1.135994473338872
1774158616417282300,19.0112822265625,-0.4900773269690573,9.71903250682354,1.212681261047721
1774158616437276400,19.0312763671875,-0.504916036193259,9.709959558051825,1.2775558842793107
1774158616457270300,19.051270263671874,-0.5165139733979478,9.702204706141352,1.330717273363471
1774158616477264400,19.071264404296876,-0.517427252317965,9.69575626065433,1.3765736001312732
1774158616497258500,19.091258544921875,-0.5042927897283808,9.691962129068374,1.407812788003683
1774158616517251300,19.111251220703124,-0.4947663615681231,9.691527829304336,1.4141788159042596
1774158616537245200,19.1312451171875,-0.4902057391216978,9.692783382323384,1.4071319661326707
1774158616557239300,19.1512392578125,-0.4926176591016352,9.694957803753018,1.3912215725563466
1774158616577233400,19.1712333984375,-0.5292021535247564,9.69741513377726,1.3603225764237343
1774158616597227300,19.191227294921877,-0.6043175271984189,9.700375737148523,1.3068662960462272
1774158616617220400,19.211220458984375,-0.6957021178234368,9.702684598612786,1.2426993826925754
1774158616637214500,19.23121435546875,-0.7648569025922566,9.704162854471802,1.1893623447805641
1774158616657208300,19.251208251953123,-0.8014070563543587,9.704529349696635,1.1620097890831529
1774158616677202400,19.271202392578125,-0.824166146781668,9.70483856177628,1.1433567457351832
1774158616697196300,19.2911962890625,-0.844428817283362,9.707165543419123,1.108267019914463
1774158616717190100,19.311190185546874,-0.8439238634359091,9.713104870340228,1.0553430928479879
1774158616737183200,19.331183349609375,-0.7985637226872145,9.721823014324903,1.009378410334885
1774158616757177300,19.35117724609375,-0.7135711711868643,9.72833634174168,1.0102844923291354
1774158616777171500,19.37117138671875,-0.6442316044356674,9.725814129787683,1.078825090722367
1774158616797165300,19.391165283203126,-0.6130049837838858,9.717328625515103,1.1696849998861552
1774158616817159400,19.411159423828124,-0.5620038780061528,9.709980600839852,1.2533124005131422
1774158616837152300,19.43115234375,-0.4564706062477082,9.70677625184059,1.3192897242896258
1774158616857146400,19.451146484375,-0.34169450904335824,9.708517542549966,1.3410183026254177
1774158616877140200,19.47114013671875,-0.2603363502562977,9.71242740947008,1.3309209792420267
1774158616897134300,19.49113427734375,-0.26886141935428604,9.719099726840852,1.2795306914836166
1774158616917128400,19.51112841796875,-0.32026984555758536,9.725449388128519,1.2179647544085979
1774158616937121300,19.531121337890625,-0.45607623663526026,9.728844291263819,1.1454095135465263
1774158616957115400,19.551115478515626,-0.5624048965550958,9.730187522566318,1.0851426763713359
1774158616977109500,19.571109619140625,-0.5914592512017116,9.733236973264813,1.041462597664073
1774158616997103400,19.591103271484375,-0.6124440984981134,9.737276604044437,0.9903381212349981
1774158617017097200,19.61109716796875,-0.6648803516454994,9.74072352962792,0.9201299549557268
1774158617037090300,19.63109033203125,-0.7445912364158779,9.743215346443652,0.8280934032279997
1774158617057084400,19.65108447265625,-0.8315307572655379,9.74546049502194,0.7106052340533584
1774158617077078300,19.671078369140623,-0.919878391347453,9.746236155569553,0.5788704397961497
1774158617097072400,19.691072265625,-1.0013707527071236,9.744702954652904,0.4564970923958346
1774158617117066500,19.71106640625,-1.0799615474063902,9.740637020388245,0.35218254877738653
1774158617137059300,19.731059326171874,-1.1605224731348454,9.733971717280149,0.27086554398462176
1774158617157053200,19.75105322265625,-1.235609424431622,9.726393975502251,0.20229403899647294
1774158617177047300,19.77104736328125,-1.2880863383829593,9.720607793316244,0.1449875037984457
1774158617197041200,19.791041259765624,-1.3213653615199028,9.716795541551708,0.0908626308438368
1774158617217035300,19.81103515625,-1.3351983643002807,9.715279876291751,0.031238406987697816
1774158617237028400,19.8310283203125,-1.3245957217432558,9.71677449876368,-0.011427543365623568
1774158617257022500,19.8510224609375,-1.3299099025033414,9.715967858555912,-0.041314093928015785
1774158617277016300,19.871016357421876,-1.3310925364166497,9.715603116896748,-0.0749263584741624
1774158617297010200,19.89101025390625,-1.3349677704147993,9.714771926769613,-0.10697730568745173
1774158617317004300,19.91100439453125,-1.339766987390071,9.713803373998402,-0.13201393999215214
1774158617336997000,19.9309970703125,-1.3235505966044963,9.715887779057025,-0.14184806412840262
1774158617356991000,19.950990966796876,-1.268193012650311,9.723480718404055,-0.12646380418487824
1774158617376985000,19.970985107421875,-1.184432267967239,9.734506554809212,-0.08308228829908185
1774158617396979200,19.990979248046877,-1.091951406538114,9.745659816986322,-0.012588486036931862
1774158617416972300,20.01097216796875,-1.0061971499502658,9.75469009566009,0.0629907868129434
1774158617436966100,20.030966064453125,-0.9794874222010373,9.756682146260141,0.1346803461898118
1774158617456960300,20.050960205078123,-0.9979746805280446,9.753956520688533,0.1864136752322316
1774158617476953900,20.070953857421873,-1.0447850931502878,9.74864613932073,0.20667099370537326
1774158617496948000,20.090947998046875,-1.0948259390611201,9.74355670722723,0.18671313310284166
1774158617516941000,20.110941162109373,-1.133340743959695,9.739722243630885,0.15414218517001718
1774158617536935200,20.13093505859375,-1.1877976527471095,9.733835523679852,0.1094070353187155
1774158617556929000,20.150928955078125,-1.2650061993077397,9.72445745448172,0.07116361754031386
1774158617576923100,20.170923095703124,-1.3277747901707886,9.716134447294474,0.06435612034939694
1774158617596917200,20.190917236328126,-1.3694053159371018,9.710155957406759,0.08932517387717961
1774158617616910000,20.21091015625,-1.4042958659239113,9.704720488354564,0.12943548607258126
1774158617636904000,20.230904052734374,-1.4354311550304293,9.699494278138875,0.17238323191730304
1774158617656898000,20.25089794921875,-1.46438398553133,9.694422966223955,0.21010752575900404
1774158617676892200,20.27089208984375,-1.4994612902618945,9.688378425362705,0.23942929917015135
1774158617696886000,20.290885986328124,-1.5366757531516253,9.682149175584316,0.25492318436745554
1774158617716879000,20.310879150390626,-1.5774501004800199,9.675561029365658,0.25606888380385934
1774158617736873200,20.330873291015624,-1.62333404590711,9.668232293912768,0.24590176485357804
1774158617756867000,20.3508671875,-1.6664857898913323,9.66154945514798,0.21836272840704768
1774158617776861200,20.370861083984376,-1.6989277776822447,9.656621935617924,0.18354772787448018
1774158617796855300,20.390855224609375,-1.7145193145677446,9.654245269614458,0.16232004826553165
1774158617816848100,20.41084814453125,-1.720835365846753,9.653168580293654,0.1594743947771378
1774158617836842000,20.430842041015627,-1.7133784739695488,9.654473817673326,0.1607656218977645
1774158617856836000,20.450836181640625,-1.7067124402090905,9.65562298770845,0.1626954391828738
1774158617876830200,20.470830322265623,-1.7148185897752641,9.654292615887522,0.15628193714506924
1774158617896824000,20.490823974609373,-1.72038382268697,9.653447397235036,0.14704908510390668
1774158617916817200,20.510817138671875,-1.6982327811554074,9.657252634736896,0.15452733029639348
1774158617936811300,20.530811279296874,-1.6004998444169758,9.672660631749034,0.22000075967134908
1774158617956804900,20.550804931640624,-1.5116748751468956,9.682730774864554,0.360494194320403
1774158617976799000,20.570799072265626,-1.471608237696439,9.682752986696363,0.4990508339542895
1774158617996793000,20.59079296875,-1.43273504781425,9.68301602154672,0.5973954728502779
1774158618016786200,20.6107861328125,-1.392777131435275,9.686758130684494,0.6303007673040032
1774158618036780000,20.630780029296876,-1.3512763695284724,9.694186234858632,0.605972089472413
1774158618056774100,20.650774169921874,-1.3428048937812447,9.697969260528684,0.5626997878484428
1774158618076768300,20.670768310546876,-1.341831518704444,9.70162895208001,0.49826790341567245
1774158618096762000,20.69076220703125,-1.3266706283211707,9.706035662606357,0.45078156429324295
1774158618116755000,20.7107548828125,-1.3179603753820062,9.708444477313757,0.42366899136416614
1774158618136749000,20.7307490234375,-1.3084630637183785,9.710828742101787,0.397668471330218
1774158618156743200,20.7507431640625,-1.2933189783394337,9.714567344108223,0.3533664613323286
1774158618176737000,20.770737060546875,-1.2971335681915281,9.715799516251682,0.30176981908055023
1774158618196731100,20.790731201171877,-1.302817605177313,9.716581606540084,0.24716699901642275
1774158618216724200,20.81072412109375,-1.3058420675650237,9.717473586943745,0.18937994115930049
1774158618236718000,20.830718017578125,-1.3057761627219617,9.718604636800288,0.11863674555472098
1774158618256712200,20.850712158203127,-1.3119504674427211,9.718408237445354,0.04131977475013118
1774158618276706000,20.8707060546875,-1.3255870708681643,9.716556472098826,-0.04170603868793696
1774158618296699600,20.89069970703125,-1.3458558057844638,9.71309902512133,-0.1215776213122066
1774158618316692700,20.910692626953125,-1.3692863657325505,9.708766548874973,-0.18787967439787462
1774158618336686800,20.930686767578123,-1.3953532655335963,9.704041858440638,-0.23436836251877247
1774158618356681000,20.950680908203125,-1.4021131150573491,9.70196622121036,-0.2762459401150234
1774158618376674800,20.9706748046875,-1.3962864547304807,9.7023040748626,-0.29338554669274014
1774158618396668000,20.99066796875,-1.4040807618685065,9.700683195662497,-0.3093264998041093
1774158618416661800,21.010661865234376,-1.3938900611132383,9.702069681584835,-0.31195904026478527
1774158618436655900,21.03065576171875,-1.382499190787971,9.703554367184639,-0.3164278197092935
1774158618456649700,21.050649658203124,-1.3677084488913416,9.705427759841085,-0.32314912732094525
1774158618476643800,21.070643798828126,-1.3400738613821566,9.708869424727558,-0.3353334130462259
1774158618496637000,21.090636962890624,-1.3045556810162962,9.714193834620714,-0.32090576884094624
1774158618516630800,21.110630859375,-1.2714062756083906,9.719677234467863,-0.2859763846810907
1774158618536625000,21.130625,-1.1774820104379207,9.732988551461697,-0.22989647780172526
1774158618556619000,21.150618896484374,-1.0837228727012873,9.745165895989537,-0.16630077019846065
1774158618576612900,21.17061279296875,-1.0274155868068338,9.752083712553977,-0.10797751397225074
1774158618596605700,21.190605712890626,-0.9804733644984662,9.757223413529992,-0.07537200161612126
1774158618616599800,21.210599853515625,-0.9852665901243686,9.75683470647335,-0.06183532403435092
1774158618636594000,21.230593994140627,-0.9843697143498807,9.756956287026405,-0.05684366236005444
1774158618656587800,21.250587890625,-0.9769715669225901,9.757698629826306,-0.05665899910868611
1774158618676582000,21.270581787109375,-0.9759736419264227,9.757873986393212,-0.04170838134207297
1774158618696575000,21.290574951171877,-0.9761085203524679,9.757930100494622,-0.019258055469836107
1774158618716568800,21.31056884765625,-0.9736229871470481,9.758166247338057,0.025251672144734765
1774158618736562700,21.330562744140625,-0.964240241773799,9.758770058450102,0.08388221563827246
1774158618756556800,21.350556884765624,-0.9576761340178549,9.758704591998457,0.1446700444802642
1774158618776550700,21.370550537109374,-0.9613598640318959,9.7573023239851,0.20306100478097797
1774158618796543700,21.390543701171875,-0.9728759681720286,9.754916890153288,0.2559515958334319
1774158618816537900,21.410537841796874,-0.9923479266874492,9.751970899829267,0.2910327547552064
1774158618836532000,21.430531982421876,-1.0162534837361425,9.749059396296738,0.3056803070551716
1774158618856525800,21.45052587890625,-1.0461115925136952,9.745779643973707,0.30953992335908115
1774158618876520000,21.47052001953125,-1.0806425154078751,9.7419714838624,0.3107996410965919
1774158618896512800,21.4905126953125,-1.1052766059268266,9.739278006994724,0.3086049440639093
1774158618916507000,21.5105068359375,-1.120281940422207,9.737515673497319,0.3100454251958057
1774158618936500700,21.530500732421874,-1.1315932427052409,9.735882519337535,0.32015221052728593
1774158618956494800,21.550494873046876,-1.131675806422159,9.73534943537414,0.3356542424984276
1774158618976488000,21.570488037109374,-1.1298267444893717,9.734868958380817,0.35528139157555993
1774158618996481800,21.590481689453124,-1.1363305003602058,9.733467859411238,0.3724991779560223
1774158619016476000,21.610475830078126,-1.1536587248452006,9.730814714553953,0.3881878550730645
1774158619036470000,21.630469970703125,-1.173920737759769,9.72788976701796,0.4005700745232403
1774158619056464000,21.6504638671875,-1.1856776649184524,9.726374686279893,0.40274482474643736
1774158619076456700,21.670456787109377,-1.1437669339712708,9.73141443401277,0.4022191934371367
1774158619096450800,21.690450927734375,-1.0214617199037224,9.743100195631385,0.44608029126711185
1774158619116445000,21.71044482421875,-0.8888325340900569,9.751075996816157,0.5448877253692597
1774158619136438800,21.730438720703123,-0.8046126474626362,9.75144424560666,0.6575196136191487
1774158619156433000,21.750432861328125,-0.7579624669034034,9.749379714292287,0.7385481568593532
1774158619176426000,21.770426025390623,-0.7200950199976563,9.75002853358984,0.7673151093993336
1774158619196419800,21.790419921875,-0.6800094586510211,9.754738026455044,0.7436827432688325
1774158619216413700,21.81041357421875,-0.6525759466718882,9.760984227368235,0.6839136995479465
1774158619236407800,21.83040771484375,-0.648456893980503,9.766075997549295,0.6112903618857264
1774158619256401700,21.850401611328124,-0.6669515318963676,9.768183783483504,0.5551273067675531
1774158619276394800,21.870394775390626,-0.7024955773558467,9.767903797498345,0.5147059010626748
1774158619296389000,21.89038916015625,-0.7480335588894784,9.766347800227999,0.4788249517990276
1774158619316383200,21.91038330078125,-0.7984084590602666,9.764134215831756,0.4411663253383711
1774158619336377000,21.930377197265624,-0.8512086136166006,9.761618433618544,0.39578536099735645
1774158619356371200,21.95037109375,-0.9080752869594841,9.758636202937364,0.3388115009529516
1774158619376364300,21.9703642578125,-0.9669234895084052,9.755032625487447,0.27347609180919824
1774158619396358100,21.990358154296874,-1.022816349383071,9.751019298192858,0.20463817270351572
1774158619416352000,22.01035205078125,-1.0641216617830096,9.747819625368713,0.13432851881114766
1774158619436346000,22.03034619140625,-1.0885225280679762,9.745821145027875,0.06698350971092004
1774158619456339200,22.050339111328125,-1.1136973013348876,9.74320073339641,0.009039635590580292
1774158619476333000,22.0703330078125,-1.1498990069855004,9.738910342726111,-0.04178516833875328
1774158619496327200,22.0903271484375,-1.1862241928853094,9.734293788841367,-0.08228584982492029
1774158619516321300,22.1103212890625,-1.2030214522987603,9.732005970165133,-0.10580178650151938
1774158619536315100,22.130315185546873,-1.199234992562607,9.732330964335798,-0.11819841806953772
1774158619556308000,22.150307861328123,-1.180341345391795,9.73454630229771,-0.1256940162556246
1774158619576302000,22.170302001953125,-1.1575242411669342,9.737200031676888,-0.13217888476289807
1774158619596296200,22.190296142578124,-1.135248550342396,9.739673143792151,-0.1427731613503769
1774158619616290000,22.2102900390625,-1.1104217867955566,9.742371296834945,-0.15341441888473928
1774158619636284200,22.2302841796875,-1.0863779903199524,9.745001060816644,-0.15842833805661646
1774158619656277200,22.25027734375,-1.0432064456567167,9.749999892017245,-0.13994255930064245
1774158619676271000,22.27027099609375,-0.9600791765715926,9.759199097517133,-0.08158284352156334
1774158619696265200,22.29026513671875,-0.8487464612867682,9.769850839912891,0.0041936500142677685
1774158619716259300,22.31025927734375,-0.7226884705569595,9.779556241369248,0.09165417394717223
1774158619736253000,22.3302529296875,-0.6133385265871882,9.786089442530274,0.16326293687252327
1774158619756246000,22.35024609375,-0.5465056454272941,9.789197345417737,0.20814888423820957
1774158619776240000,22.370240234375,-0.5381644449962303,9.78896996640265,0.2384367444688454
1774158619796234200,22.390234130859376,-0.584408090581186,9.786089442530274,0.2475858820156194
1774158619816228000,22.41022802734375,-0.6575461362998932,9.781663442781568,0.23888428730694575
1774158619836221200,22.43022119140625,-0.7144217966668307,9.77786931119561,0.23076966217337175
1774158619856215300,22.45021533203125,-0.7423287713766098,9.77569021359086,0.23503064408609642
1774158619876209000,22.470208984375,-0.7655502916838973,9.774038354730605,0.22914553157025946
1774158619896203000,22.490203125,-0.7935808927733451,9.771888483220339,0.225403440698795
1774158619916197000,22.510197021484377,-0.8246406324256211,9.769172794520854,0.23160519968206061
1774158619936190200,22.530190185546875,-0.8644600901819766,9.765293322739005,0.2492725747272372
1774158619956184000,22.55018408203125,-0.9146676709618419,9.760086986267567,0.27290574457533656
1774158619976178200,22.57017822265625,-0.9675153909869492,9.754105573770403,0.3028233832540922
1774158619996172300,22.59017236328125,-1.0149878477144987,9.748097857788204,0.3387990798627957
1774158620016166100,22.610166259765624,-1.0643738099131732,9.741924137589335,0.3639242783669382
1774158620036159000,22.630158935546874,-1.1210414535526185,9.734985278236865,0.3791000375257805
1774158620056153000,22.650153076171875,-1.178927021614462,9.727827807697652,0.38717049472406506
1774158620076147200,22.670147216796874,-1.2352061043277383,9.720931033921241,0.38487851132936773
1774158620096141000,22.69014111328125,-1.2873702990680933,9.714428227898479,0.3780708406085148
1774158620116135200,22.71013525390625,-1.3231402622379362,9.709801152619718,0.3734484780374914
1774158620136128300,22.730128173828124,-1.341840140402317,9.707493460199236,0.36663342772778124
1774158620156122000,22.7501220703125,-1.354634886176139,9.706028063821792,0.35832412027232347
1774158620176116200,22.7701162109375,-1.3727254002705216,9.703512281608582,0.35756742015350607
1774158620196110300,22.7901103515625,-1.4031734377652405,9.69885130406022,0.36578963384740054
1774158620216104000,22.81010400390625,-1.424297766597569,9.695622405141592,0.36968196511082346
1774158620236097000,22.830096923828126,-1.3928795688964426,9.6997251642853,0.3816157466737553
1774158620256091100,22.850091064453125,-1.2950007939465342,9.710952076220511,0.43678131518717855
1774158620276085200,22.870085205078126,-1.183090059578046,9.719843823206425,0.5434167395012452
1774158620296079000,22.8900791015625,-1.1042102188043297,9.722166128674148,0.6562056814763695
1774158620316073200,22.9100732421875,-1.0229960898641497,9.724708798894286,0.7442546248726546
1774158620336066300,22.93006640625,-0.9128514883853495,9.732424487838149,0.7854875296235084
1774158620356060000,22.950059814453127,-0.8236904190286993,9.741499774697422,0.7714305818941444
1774158620376054000,22.970053955078125,-0.8025381792761385,9.74823697399795,0.7058272790618241
1774158620396048100,22.990048095703123,-0.8521321582023054,9.75019687589407,0.6147705321516841
1774158620416042000,23.0100419921875,-0.9275639043487608,9.748583010956644,0.524558309774287
1774158620436035000,23.03003515625,-0.9515048980370163,9.749957221919297,0.45094285580217836
1774158620456029200,23.050029296875,-0.9277233326941728,9.754944947203994,0.3882910231865942
1774158620476023300,23.070023193359376,-0.9326859235376119,9.756819508904218,0.3239736685115844
1774158620496017200,23.09001708984375,-0.9741341515395789,9.754901108062267,0.2516994000153616
1774158620516011300,23.11001123046875,-1.0150404546845704,9.752527949190139,0.16810308864638207
1774158620536004000,23.130004150390626,-1.043323642295599,9.750728790813683,0.07172515584663487
1774158620555998200,23.149998291015624,-1.071641316698119,9.747877493035793,-0.029762416151002977
1774158620575992000,23.169991943359374,-1.120145673756674,9.741489253303408,-0.13804276269446125
1774158620595986200,23.189986083984376,-1.1691071269329636,9.73389572943449,-0.23422504505794495
1774158620615979300,23.209979248046874,-1.2036935794066637,9.728312960866093,-0.28536974229114126
1774158620635973000,23.22997314453125,-1.2334466934397816,9.723325235581397,-0.3254570754697546
1774158620655967200,23.24996728515625,-1.2605145869769154,9.718160400164127,-0.37262583654299375
1774158620675961300,23.26996142578125,-1.2890218656674026,9.711960961002111,-0.43199093910548836
1774158620695955000,23.289954833984375,-1.3340185068659483,9.702316349822283,-0.5058213510025292
1774158620715948000,23.309947998046876,-1.379401517033577,9.692589321056008,-0.5668914308520033
1774158620735942100,23.329942138671875,-1.4060714972943067,9.686797878172992,-0.5994181743169203
1774158620755936300,23.349936279296877,-1.427523304515332,9.682112935227154,-0.6238882699131966
1774158620775930000,23.36993017578125,-1.4593085819631815,9.677975104770065,-0.6144914229493588
1774158620795924200,23.38992431640625,-1.5021734718300401,9.670089904478191,-0.6349927245125174
1774158620815917300,23.409917236328123,-1.4850567712038754,9.672323362618684,-0.6411968398496508
1774158620835911000,23.429910888671873,-1.4868357635751366,9.6736373678267,-0.6167959004994481
1774158620855905000,23.449905029296875,-1.4644995747350156,9.68010860966742,-0.5666664264570921
1774158620875899100,23.469899169921874,-1.4186451476633548,9.69122504696548,-0.4878551939401775
1774158620895893000,23.48989306640625,-1.3553212610051035,9.705091659754514,-0.38038039619252084
1774158620915886000,23.509885986328126,-1.303714846277982,9.716386376228929,-0.25010641346918416
1774158620935880200,23.529880126953124,-1.2564163578778504,9.725041976371408,-0.12389547893367707
1774158620955874300,23.549874267578126,-1.22567737461254,9.729721658620237,-0.025335989427322056
1774158620975868200,23.5698681640625,-1.2437484533540903,9.727362528273463,0.04335703903166577
1774158620995862300,23.5898623046875,-1.316965665256232,9.717377725353836,0.09254198963236994
1774158621015855000,23.609855224609376,-1.3807139148063956,9.70817735081017,0.12369414767529814
1774158621035849200,23.62984912109375,-1.4063019450493157,9.704231828054786,0.14357435819804668
1774158621055843000,23.649843017578124,-1.4408002808481455,9.69916928396821,0.14345988323921338
1774158621075837200,23.669837158203126,-1.4596931973665952,9.696531336680055,0.13024054624461567
1774158621095831000,23.6898310546875,-1.4623478035286068,9.69627590061426,0.11901469375533051
1774158621115824000,23.70982421875,-1.4740209979265928,9.694509475463628,0.11890819204039871
1774158621135818200,23.729818359375,-1.513423472379893,9.688117728599906,0.1424720595119521
1774158621155812000,23.74981201171875,-1.5577876608937977,9.68066741259396,0.16843385497070848
1774158621175806000,23.769805908203125,-1.5844785378120838,9.67622972240746,0.1743944073429331
1774158621195799000,23.789799072265627,-1.5908803676784038,9.675267599377035,0.169322291710414
1774158621215793200,23.809793212890625,-1.5938579221844673,9.675060678628087,0.1522375023261644
1774158621235787300,23.829787353515623,-1.6005184029869735,9.674375034451485,0.1233221908240579
1774158621255781000,23.849781005859374,-1.6158846066839991,9.672152682226896,0.0935992253340315
1774158621275775200,23.869775146484375,-1.6356281486824154,9.66903016629219,0.07035860760062933
1774158621295768000,23.88976806640625,-1.6623863917484878,9.664514734694361,0.06334212100126314
1774158621315762000,23.909761962890624,-1.684033283150196,9.660703651973604,0.07240475387494079
1774158621335756000,23.929756103515626,-1.6896017309322953,9.659507720187305,0.09772736551417037
1774158621355750100,23.949750244140624,-1.693846090503782,9.658282562306523,0.13727291996628047
1774158621375744000,23.969743896484374,-1.6972824946932494,9.656949852398037,0.18142774004582315
1774158621395737000,23.989737060546876,-1.6663897821709512,9.661487495827675,0.22174241570690645
1774158621415731200,24.009731201171874,-1.5749899939768015,9.675600776854157,0.26935570567725226
1774158621435725300,24.029725341796876,-1.446542477761954,9.693194885733723,0.34621213259827344
1774158621455719000,24.049718994140626,-1.3232514675274492,9.706401573309302,0.45293640423957254
1774158621475713000,24.069713134765625,-1.194523015479371,9.71684990208745,0.5712662118701264
1774158621495706000,24.0897060546875,-1.063354476802796,9.725811791700124,0.6695228436890989
1774158621515700200,24.1097001953125,-0.9662094960201532,9.729836224910617,0.7530704570781439
1774158621535694000,24.129694091796875,-0.9215230167493224,9.729329444432258,0.8132154945045709
1774158621555688200,24.149688232421877,-0.9287059870559722,9.72733037956953,0.8288144840441644
1774158621575682000,24.16968212890625,-0.9485605882134288,9.727187171706557,0.8077448080085218
1774158621595675000,24.1896748046875,-0.9900821737125516,9.726094115772844,0.770203597382456
1774158621615669000,24.2096689453125,-1.0485116393927485,9.72393606095612,0.7183827361870556
1774158621635663000,24.2296630859375,-1.0820128539130092,9.72486954241395,0.6530917141743003
1774158621655657000,24.249656982421875,-1.1131848948333412,9.725815298831462,0.5828728073053061
1774158621675651000,24.269651123046874,-1.1440180591881275,9.72649042161405,0.5069434138350188
1774158621695644200,24.28964404296875,-1.1650919730074702,9.727848265963793,0.4264920494282618
1774158621715638300,24.30963818359375,-1.1812978423990308,9.728978146776557,0.3491594380965456
1774158621735632100,24.329632080078124,-1.2100798463776707,9.72788801345229,0.27252607934167605
1774158621755626200,24.349626220703126,-1.2441887444674968,9.725507255795597,0.19208147346926852
1774158621775619000,24.369619140625,-1.280012483651191,9.72214274779856,0.10908471716232597
1774158621795613000,24.389613037109374,-1.323610510098189,9.716879712703824,0.02635645048228325
1774158621815607000,24.40960693359375,-1.374636202327907,9.709677818500994,-0.053895795172778885
1774158621835601200,24.42960107421875,-1.4229682715594767,9.702050392362475,-0.12554866210133767
1774158621855595000,24.449594970703124,-1.461217338193953,9.695352356028556,-0.18808624808695165
1774158621875589000,24.469589111328126,-1.4850060639299452,9.690691378480196,-0.23583185920007527
1774158621895582200,24.489582275390624,-1.4953509323336183,9.688315296998619,-0.26618319485466924
1774158621915576000,24.509576171875,-1.4980591683790088,9.687392921456693,-0.2839183013738133
1774158621935570000,24.52956982421875,-1.50201053635329,9.686445411473512,-0.29518717102091757
1774158621955564000,24.54956396484375,-1.5133287798337638,9.684353407630324,-0.30583770784027875
1774158621975557000,24.56955712890625,-1.5230978941760955,9.682762923568486,-0.3076899481108412
1774158621995551200,24.58955126953125,-1.5091422879293561,9.685425420776008,-0.2922368150490336
1774158622015545000,24.609545166015625,-1.482633781840652,9.690620066809654,-0.25315250316681337
1774158622035539200,24.629539306640623,-1.4506800159581004,9.696987263754009,-0.18530666383840141
1774158622055533000,24.649532958984373,-1.4046528626680372,9.704982938683033,-0.10317818739912472
1774158622075526000,24.66952587890625,-1.3855156159996986,9.708273212400078,-0.013354400367022026
1774158622095520000,24.68952001953125,-1.4168435050688684,9.703411159321664,0.08202689749463461
1774158622115514000,24.70951416015625,-1.5044751729011534,9.689355161440371,0.15272321261703037
1774158622135508000,24.729508056640626,-1.6248545334726572,9.669718733078241,0.16365211885320022
1774158622155502000,24.749502197265624,-1.7388300183512269,9.650325465822219,0.13451923734396695
1774158622175495200,24.7694951171875,-1.7771150330819188,9.643792849183082,0.09756226547979749
1774158622195489300,24.7894892578125,-1.7849696921050549,9.642468907102941,0.08398822416285984
1774158622215483100,24.809483154296874,-1.7935411210954189,9.640987728634476,0.07041000442772638
1774158622235477200,24.829477294921876,-1.8099265848375856,9.638003159865736,0.05866456677743699
1774158622255471000,24.84947119140625,-1.8192201906226575,9.63628115837872,0.05404039584181737
1774158622275464000,24.8694638671875,-1.8227382817462086,9.635638184300065,0.04960942309047095
1774158622295458000,24.8894580078125,-1.8198459213055669,9.63622329071164,0.04179185837444383
1774158622315452200,24.9094521484375,-1.8228303439438343,9.63566507230699,0.04042337846625596
1774158622335446000,24.929446044921875,-1.8449847464762628,9.631444239741564,0.041533801093301737
1774158622355439000,24.949439208984376,-1.8849417860724031,9.62371043061912,0.0396519420026103
1774158622375433200,24.96943310546875,-1.9262785895891485,9.615520109900832,0.03999743553861044
1774158622395427000,24.989427001953125,-1.9652733600243926,9.607617958474158,0.041828390992549244
1774158622415421000,25.0094208984375,-1.9944797268949448,9.60159153779149,0.04348206735055428
1774158622435415000,25.0294150390625,-2.007255475707352,9.598888708573579,0.051276529752206985
1774158622455408000,25.049408203125,-2.0092956032328306,9.598377836441992,0.06528110340693966
1774158622475402200,25.06940234375,-2.004697315657139,9.59920551943779,0.08260308994739315
1774158622495396000,25.08939599609375,-2.000044229154289,9.599939678931236,0.10663455666438676
1774158622515390200,25.10939013671875,-2.0052286460548636,9.598452070721983,0.1383854295191355
1774158622535384000,25.129384033203124,-1.9983667974613606,9.599375615307688,0.17002967279478906
1774158622555377000,25.149376953125,-1.9613367512278257,9.606368835195898,0.20304458336913958
1774158622575371000,25.16937109375,-1.8783299667172133,9.621495677179098,0.26286736657125875
1774158622595365000,25.189365234375,-1.7792254493646322,9.636776248419284,0.3705186351306736
1774158622615359000,25.20935888671875,-1.6754748597718774,9.64808557794094,0.5268927806038409
1774158622635353000,25.22935302734375,-1.5597228667400775,9.658507018712163,0.6714838415637612
1774158622655346200,25.24934619140625,-1.4555132813334464,9.666238489747046,0.7846672992818057
