time,seconds_elapsed,z,y,x
1774158597459340800,0.0533408203125,-0.4737715721130371,-0.5547572374343872,0.4710516631603241
1774158597479335000,0.0733349609375,-0.6850334405899048,-0.4736067056655884,0.4399496912956238
1774158597499328800,0.093328857421875,-0.7400195002555847,-0.3644144535064697,0.23432515561580658
1774158597519323000,0.113322998046875,-0.6352163553237915,-0.2571636140346527,0.05667712911963463
1774158597539316700,0.133316650390625,-0.5215409398078918,-0.19735008478164673,-0.03777294605970383
1774158597559310600,0.153310546875,-0.423869788646698,-0.17825202643871307,-0.020213657990098
1774158597579304700,0.1733046875,-0.3686448633670807,-0.1605401486158371,0.0986192524433136
1774158597599298800,0.193298828125,-0.42785680294036865,-0.132399320602417,0.1412724405527115
1774158597619292700,0.213292724609375,-0.5353885889053345,-0.16058595478534698,-0.03458727151155472
1774158597639286800,0.233286865234375,-0.5839893817901611,-0.18384040892124176,-0.2370695322751999
1774158597659281000,0.253281005859375,-0.5517643690109253,-0.26671266555786133,-0.35964420437812805
1774158597679274800,0.273274658203125,-0.46641111373901367,-0.13968013226985931,-0.3279573619365692
1774158597699268900,0.293268798828125,-0.3901512324810028,-0.031623706221580505,-0.19950005412101746
1774158597719262700,0.3132626953125,-0.3844163715839386,-0.09722322225570679,-0.09350145608186722
1774158597739256800,0.3332568359375,-0.3927547335624695,-0.10894006490707397,-0.06932634115219116
1774158597759251000,0.3532509765625,-0.33680200576782227,-0.14269642531871796,-0.1760661005973816
1774158597779244500,0.37324462890625,-0.2899293005466461,-0.11922652274370193,-0.26694008708000183
1774158597799238700,0.39323876953125,-0.22099709510803223,-0.19156117737293243,-0.26380234956741333
1774158597819232800,0.413232666015625,-0.08706805855035782,-0.12354244291782379,-0.14777134358882904
1774158597839226600,0.4332265625,0.09544609487056732,0.06289241462945938,0.05062909051775932
1774158597859220700,0.453220703125,0.23808446526527405,-0.08893945813179016,0.1740378439426422
1774158597879214800,0.47321484375,0.3089679777622223,-0.1045711487531662,0.2960963845252991
1774158597899208700,0.493208740234375,0.33017605543136597,-0.13471706211566925,0.37618666887283325
1774158597919202800,0.513202880859375,0.35997840762138367,-0.07203318178653717,0.360402911901474
1774158597939197000,0.533197021484375,0.41378119587898254,0.037939392030239105,0.3756990432739258
1774158597959190800,0.553190673828125,0.4225933253765106,0.1988297402858734,0.2910323739051819
1774158597979185000,0.573184814453125,0.4968949854373932,0.20889702439308167,-0.07724685221910477
1774158597999178800,0.5931787109375,0.5372520089149475,-0.05253564566373825,-0.3472903072834015
1774158598019172600,0.613172607421875,0.5787906646728516,-0.10029517859220505,-0.42628154158592224
1774158598039166700,0.633166748046875,0.6020964980125427,-0.06009982153773308,-0.418599396944046
1774158598059160800,0.653160888671875,0.6056188344955444,-0.1945127546787262,-0.3104739785194397
1774158598079154700,0.67315478515625,0.7537723183631897,-0.595576286315918,-0.018925487995147705
1774158598099148800,0.693148681640625,1.2057733535766602,-0.9893851280212402,0.43358418345451355
1774158598119142700,0.713142578125,2.0328452587127686,-1.2383209466934204,0.9970366358757019
1774158598139136800,0.73313671875,2.583026170730591,-1.0460963249206543,1.6045933961868286
1774158598159131000,0.753130859375,2.1777491569519043,-0.783107578754425,1.6388046741485596
1774158598179124700,0.773124755859375,1.6066094636917114,-0.7069209218025208,1.4004043340682983
1774158598199118800,0.793118896484375,1.8021565675735474,-0.7700628638267517,1.3882163763046265
1774158598219113000,0.813113037109375,2.3346469402313232,-1.123531699180603,1.6502515077590942
1774158598239106600,0.8331064453125,2.890115737915039,-0.8538467288017273,1.7422887086868286
1774158598259100700,0.8531005859375,3.0316250324249268,-0.4630712568759918,1.8019195795059204
1774158598279095300,0.87309521484375,3.094550848007202,-0.37184199690818787,1.839836835861206
1774158598299089400,0.89308935546875,3.1414144039154053,-0.32786256074905396,1.6265925168991089
1774158598319083500,0.91308349609375,3.2961175441741943,-0.010330135934054852,1.4877687692642212
1774158598339077400,0.933077392578125,3.7669894695281982,-0.23120711743831635,1.5705715417861938
1774158598359071500,0.953071533203125,4.25994348526001,-0.8924886584281921,2.053966760635376
1774158598379065600,0.973065673828125,4.2767415046691895,-1.3371292352676392,2.6241259574890137
1774158598399059500,0.9930595703125,4.126702785491943,-1.0472497940063477,2.6012930870056152
1774158598419053600,1.013053466796875,3.9813449382781982,-0.4653887152671814,2.113572359085083
1774158598439047700,1.033047607421875,3.889838933944702,-0.12502741813659668,1.6093591451644897
1774158598459041500,1.05304150390625,3.722628116607666,-0.6378904581069946,1.6538909673690796
1774158598479035600,1.07303564453125,3.5522170066833496,-0.855297327041626,1.8384491205215454
1774158598499029500,1.093029541015625,3.343433380126953,-0.8358445763587952,1.8855502605438232
1774158598519023400,1.1130234375,3.1349165439605713,-0.5792492628097534,1.8203805685043335
1774158598539017500,1.133017578125,2.9266417026519775,-0.32465237379074097,1.5938140153884888
1774158598559011600,1.153011474609375,2.549562931060791,-0.31020793318748474,1.1846081018447876
1774158598579005400,1.17300537109375,2.1288046836853027,-0.29240575432777405,0.725954532623291
1774158598598999600,1.19299951171875,1.7867584228515625,-0.2983267605304718,0.12256373465061188
1774158598618993400,1.212993408203125,1.603896975517273,-0.34239277243614197,-0.32636401057243347
1774158598638987500,1.232987548828125,1.5575846433639526,-0.406645268201828,-0.477484792470932
1774158598658981600,1.252981689453125,1.3945837020874023,-0.41174814105033875,-0.4717558026313782
1774158598678975500,1.2729755859375,1.1374638080596924,-0.42718833684921265,-0.2719457745552063
1774158598698969600,1.292969482421875,0.7991967797279358,-0.522049069404602,-0.12101776897907257
1774158598718963700,1.312963623046875,0.4569941759109497,-0.41350263357162476,-0.09546846896409988
1774158598738957300,1.332957275390625,0.21101424098014832,-0.31962379813194275,-0.2283564805984497
1774158598758951400,1.352951416015625,0.21155032515525818,-0.35336339473724365,-0.22107486426830292
1774158598778945500,1.372945556640625,0.50187748670578,-0.45540374517440796,-0.11640384048223495
1774158598798939400,1.392939453125,0.7651908993721008,-0.4369911849498749,-0.033842917531728745
1774158598818933500,1.41293359375,0.7142320871353149,-0.42308467626571655,0.013003949075937271
1774158598838927600,1.432927734375,0.5781483054161072,-0.2859196364879608,-0.03172091022133827
1774158598858921500,1.45292138671875,0.42635104060173035,-0.23672066628932953,0.005111138802021742
1774158598878915600,1.47291552734375,0.28699395060539246,-0.21539460122585297,0.08798764646053314
1774158598898909700,1.49290966796875,0.26231443881988525,-0.1730106621980667,0.07191360741853714
1774158598918903600,1.512903564453125,0.14766108989715576,-0.06353423744440079,0.09806451201438904
1774158598938897700,1.532897705078125,0.09099222719669342,0.22733008861541748,0.17937828600406647
1774158598958891500,1.5528916015625,0.03327912837266922,0.17123620212078094,0.21099798381328583
1774158598978885400,1.572885498046875,0.1497649997472763,-0.1457580029964447,0.30933815240859985
1774158598998879500,1.59287939453125,0.21629181504249573,-0.3157837986946106,0.37278875708580017
1774158599018873300,1.612873291015625,0.3068867027759552,-0.19593249261379242,0.24887453019618988
1774158599038867500,1.632867431640625,0.384085088968277,-0.24674692749977112,0.2222093641757965
1774158599058861600,1.652861572265625,0.41698604822158813,-0.4559462368488312,0.2034391462802887
1774158599078855400,1.67285546875,0.5192261338233948,-0.4224388599395752,0.27481797337532043
1774158599098849500,1.692849609375,0.46297216415405273,-0.39250707626342773,0.36106419563293457
1774158599118843600,1.71284375,0.5035507678985596,-0.4290213882923126,0.48120176792144775
1774158599138837500,1.73283740234375,0.8811132311820984,-0.34691640734672546,0.5914465188980103
1774158599158831600,1.75283154296875,0.7249966263771057,-0.543639063835144,0.5257801413536072
1774158599178825700,1.77282568359375,0.35414981842041016,-0.6803109049797058,0.5678040385246277
1774158599198819300,1.7928193359375,0.0728297308087349,-0.610511839389801,0.5052240490913391
1774158599218813400,1.8128134765625,0.030011961236596107,-0.40862664580345154,0.2953679859638214
1774158599238807600,1.8328076171875,0.07865753024816513,-0.08260646462440491,0.11958019435405731
1774158599258801400,1.852801513671875,0.2753431499004364,-0.2077561318874359,0.17594014108181
1774158599278795300,1.872795166015625,0.3875354826450348,-0.1908881962299347,0.3998808264732361
1774158599298789400,1.892789306640625,0.21994620561599731,-0.24253541231155396,0.5836437344551086
1774158599318783200,1.912783203125,0.02346164919435978,-0.3300468921661377,0.6118074655532837
1774158599338777300,1.93277734375,0.032534241676330566,-0.24368137121200562,0.535576581954956
1774158599358771200,1.952771240234375,-0.17723390460014343,0.005185441114008427,0.22399207949638367
1774158599378765300,1.972765380859375,-0.3738657236099243,0.21968574821949005,0.27342063188552856
1774158599398759400,1.992759521484375,-0.5115482211112976,0.1429068148136139,0.23716780543327332
1774158599418753000,2.0127529296875,-0.2818937301635742,0.5282579660415649,0.06845922023057938
1774158599438747100,2.0327470703125,-0.20167133212089539,0.9201099276542664,-0.024755680933594704
1774158599458741200,2.0527412109375,-0.031153924763202667,0.7260035276412964,0.05835944786667824
1774158599478735000,2.072735107421875,0.15075835585594177,0.4110024571418762,0.32954728603363037
1774158599498729200,2.092729248046875,0.20406605303287506,0.11434628069400787,0.7088810205459595
1774158599518723300,2.112723388671875,0.044318728148937225,0.05115639418363571,0.9965431690216064
1774158599538717200,2.13271728515625,0.1656467616558075,0.16967637836933136,0.9964110851287842
1774158599558711300,2.152711181640625,0.36765336990356445,0.13036492466926575,0.9904375672340393
1774158599578705400,2.172705322265625,0.27911072969436646,-0.12663809955120087,1.000912070274353
1774158599598699300,2.19269921875,0.3948061764240265,-0.03579341620206833,0.8347598314285278
1774158599618693400,2.212693359375,0.2820793688297272,-0.29678401350975037,0.46303075551986694
1774158599638687500,2.2326875,0.277649462223053,-0.48761439323425293,0.4698585867881775
1774158599658681000,2.25268115234375,0.2919897735118866,-0.7516300678253174,0.49316656589508057
1774158599678674200,2.272674072265625,0.31390705704689026,-0.2924174964427948,0.2555273771286011
1774158599698668300,2.292668212890625,0.2985187768936157,-0.04729774221777916,0.12837821245193481
1774158599718662100,2.312662109375,0.2794926166534424,0.08423391729593277,0.08534898608922958
1774158599738656300,2.33265625,0.22742542624473572,0.12384870648384094,-0.06871248781681061
1774158599758650400,2.352650390625,0.12750042974948883,-0.07764872163534164,-0.12564420700073242
1774158599778644200,2.372644287109375,0.11446452885866165,-0.4474387466907501,-0.09172006696462631
1774158599798638300,2.392638427734375,0.48469823598861694,-0.9054502844810486,-0.27195268869400024
1774158599818632400,2.412632568359375,0.8818458914756775,-1.4777662754058838,-0.6008282899856567
1774158599838626000,2.4326259765625,0.9374678730964661,-1.9560489654541016,-0.6623449325561523
1774158599858620200,2.4526201171875,0.7853425145149231,-1.456093192100525,-0.42473024129867554
1774158599878614300,2.4726142578125,0.6126258373260498,-0.23750869929790497,-0.3050414025783539
1774158599898608000,2.492608154296875,0.43080997467041016,-0.22518837451934814,-0.4203525483608246
1774158599918602200,2.512602294921875,0.46383848786354065,-0.10708171129226685,-0.34242817759513855
1774158599938596400,2.532596435546875,0.008267517201602459,0.18399913609027863,-0.3521316647529602
1774158599958590200,2.552590087890625,-0.21852540969848633,0.15719707310199738,-0.22040534019470215
1774158599978584300,2.572584228515625,-0.25158029794692993,0.08304375410079956,-0.19033505022525787
1774158599998578400,2.592578369140625,-0.1562386006116867,-0.14172863960266113,-0.05284537002444267
1774158600018572300,2.612572265625,-0.025778334587812424,-0.3161425292491913,0.07382788509130478
1774158600038566400,2.63256640625,0.14518782496452332,-0.48452913761138916,0.032641034573316574
1774158600058560300,2.652560302734375,0.8086941838264465,-0.20158638060092926,-0.17589326202869415
1774158600078554000,2.67255419921875,0.7046141028404236,0.5284345149993896,-0.19089458882808685
1774158600098548200,2.69254833984375,0.22665710747241974,0.12590201199054718,0.0827324315905571
1774158600118542000,2.7125419921875,0.04091014713048935,0.07932411879301071,0.06663601845502853
1774158600138536200,2.7325361328125,-0.10675626993179321,0.37099456787109375,-0.13108478486537933
1774158600158530300,2.7525302734375,-0.2591697871685028,0.5103402137756348,-0.13428349792957306
1774158600178524200,2.772524169921875,-0.32075589895248413,0.40699145197868347,-0.01961418054997921
1774158600198518300,2.792518310546875,-0.37527722120285034,0.20794200897216797,0.039615318179130554
1774158600218512400,2.812512451171875,-0.3380752503871918,0.12162097543478012,0.08735354989767075
1774158600238506200,2.83250634765625,-0.34869512915611267,0.10182756185531616,0.11227034777402878
1774158600258500400,2.852500244140625,-0.4314675033092499,0.24738848209381104,0.07720717042684555
1774158600278494500,2.872494384765625,-0.5618569254875183,0.4778033196926117,0.011600730009377003
1774158600298488300,2.89248828125,-0.6249688267707825,0.5927027463912964,-0.011335745453834534
1774158600318482400,2.912482421875,-0.5653883218765259,0.49181607365608215,0.12187903374433517
1774158600338476500,2.9324765625,-0.5883719325065613,0.45609694719314575,0.12155705690383911
1774158600358470400,2.952470458984375,-0.6650760173797607,0.4820995330810547,-0.02375859208405018
1774158600378463200,2.972463134765625,-0.7146813869476318,0.4479098618030548,-0.2739220857620239
1774158600398457300,2.992457275390625,-0.6708806157112122,0.31509190797805786,-0.4531395137310028
1774158600418451200,3.012451171875,-0.7141729593276978,0.14915193617343903,-0.3869383931159973
1774158600438445300,3.0324453125,-0.6684318780899048,0.12327692657709122,-0.36548158526420593
1774158600458439400,3.052439453125,-0.5185760259628296,0.18052689731121063,-0.2639482915401459
1774158600478433300,3.072433349609375,-0.3228350281715393,0.009611614979803562,-0.1483340710401535
1774158600498427400,3.092427490234375,-0.13107839226722717,-0.17745360732078552,-0.008357265964150429
1774158600518421500,3.11242138671875,-0.01859712041914463,-0.3291113078594208,0.004602208733558655
1774158600538415400,3.132415283203125,0.04572567716240883,-0.36653032898902893,-0.01455923542380333
1774158600558409500,3.152409423828125,0.027338679879903793,-0.36197152733802795,0.008618255145847797
1774158600578403300,3.1724033203125,-0.012460397556424141,-0.14478275179862976,0.08525204658508301
1774158600598397200,3.192397216796875,-0.026067819446325302,0.038306910544633865,0.1669383943080902
1774158600618391300,3.212391357421875,-0.07910680025815964,-0.08648242801427841,0.1409320831298828
1774158600638385400,3.232385498046875,-0.13708648085594177,-0.2297692745923996,0.12450757622718811
1774158600658379300,3.252379150390625,-0.04820774123072624,-0.20423249900341034,0.11317315697669983
1774158600678373400,3.272373291015625,0.16975495219230652,-0.21698583662509918,0.16240382194519043
1774158600698367200,3.2923671875,0.3852137327194214,-0.4173727333545685,0.18432269990444183
1774158600718361300,3.312361328125,0.4276179075241089,-0.5496056079864502,-0.03786615654826164
1774158600738355500,3.33235546875,0.36709651350975037,-0.3522605895996094,0.03521125018596649
1774158600758349300,3.352349365234375,0.13711844384670258,-0.33277609944343567,0.08100936561822891
1774158600778343400,3.372343505859375,-0.02419508434832096,-0.25005805492401123,0.1852494776248932
1774158600798337500,3.392337646484375,-0.05420251935720444,-0.08448745310306549,0.3437214195728302
1774158600818331100,3.4123310546875,-0.0029409287963062525,-0.07797496020793915,0.43868786096572876
1774158600838325200,3.4323251953125,-0.09749699383974075,-0.3080483675003052,0.43029677867889404
1774158600858319400,3.4523193359375,0.24125656485557556,-0.30506110191345215,0.609550416469574
1774158600878313200,3.472313232421875,0.1965213119983673,0.06350680440664291,0.5519654154777527
1774158600898307300,3.492307373046875,-0.3320578336715698,0.1300397515296936,0.5716832280158997
1774158600918301400,3.512301513671875,-0.10483427345752716,0.45857688784599304,0.5297141671180725
1774158600938295300,3.53229541015625,-0.15402205288410187,0.6775990128517151,0.32595095038414
1774158600958289400,3.552289306640625,-0.14369405806064606,0.6252801418304443,0.3421914279460907
1774158600978282500,3.572282470703125,-0.18399566411972046,0.5420858860015869,0.31798675656318665
1774158600998276400,3.5922763671875,-0.13815520703792572,0.33388981223106384,0.22857485711574554
1774158601018270200,3.612270263671875,-0.08413565158843994,0.16847236454486847,0.25913143157958984
1774158601038264300,3.632264404296875,-0.08033239096403122,0.12258956581354141,0.20239810645580292
1774158601058258200,3.652258056640625,-0.08645685762166977,0.19881881773471832,0.18395279347896576
1774158601078252300,3.672252197265625,-0.1281486451625824,0.09871646016836166,0.1271938979625702
1774158601098246400,3.692246337890625,-0.10346487164497375,0.010717093013226986,0.031911060214042664
1774158601118240300,3.712240234375,0.4594283103942871,0.3522661626338959,-0.14272572100162506
1774158601138234400,3.732234375,0.9410146474838257,0.5075673460960388,-0.33932241797447205
1774158601158228500,3.752228515625,1.39802885055542,-0.17881394922733307,-0.00030173614504747093
1774158601178222300,3.772222412109375,1.5262658596038818,-0.697253406047821,0.3257184326648712
1774158601198216400,3.792216552734375,1.7815868854522705,-1.0361922979354858,0.42315977811813354
1774158601218210600,3.81221044921875,2.0146968364715576,-0.9051544070243835,0.020111659541726112
1774158601238204200,3.8322041015625,1.9134758710861206,-0.5262025594711304,-0.854243278503418
1774158601258198300,3.8521982421875,1.926419973373413,-0.6087448000907898,-1.0498183965682983
1774158601278192000,3.872192138671875,1.8158185482025146,-1.0497092008590698,-0.5960221290588379
1774158601298186000,3.89218603515625,1.6096454858779907,-1.347442626953125,-0.22076566517353058
1774158601318180000,3.91218017578125,1.5736815929412842,-0.6581912040710449,-0.18374186754226685
1774158601338174200,3.93217431640625,2.864501953125,0.33361366391181946,-1.1290053129196167
1774158601358168000,3.95216796875,3.142137289047241,0.08211564272642136,-1.8485193252563477
1774158601378162200,3.972162109375,2.241403341293335,-0.9894692897796631,-0.7740022540092468
1774158601398156300,3.99215625,2.166177749633789,-0.7541872262954712,-0.3851620554924011
1774158601418149000,4.012149169921875,1.6897796392440796,-0.13228267431259155,-0.7367709875106812
1774158601438143200,4.032143310546875,1.3712235689163208,0.0703042596578598,-0.7856330275535583
1774158601458137000,4.05213720703125,1.298742651939392,0.09865573793649673,-0.8838003873825073
1774158601478131000,4.072130859375,1.121517539024353,-0.22877486050128937,-0.8893653154373169
1774158601498125000,4.092125,0.9142136573791504,-0.10081449151039124,-0.7439809441566467
1774158601518119200,4.112119140625,0.8155919909477234,0.4286706745624542,-0.5637480616569519
1774158601538113000,4.132113037109375,0.9865152835845947,0.8853484392166138,-0.3645388185977936
1774158601558107100,4.152107177734375,1.0959410667419434,0.5277122855186462,-0.15223853290081024
1774158601578101200,4.172101318359375,0.9124280214309692,0.4635055959224701,-0.14556066691875458
1774158601598095000,4.19209521484375,0.39345353841781616,0.24555490911006927,-0.33223146200180054
1774158601618089200,4.212089111328125,0.07105366885662079,0.40186941623687744,-0.3141171932220459
1774158601638083300,4.232083251953125,-0.07746735960245132,0.31098344922065735,-0.16860073804855347
1774158601658077200,4.2520771484375,-0.030851390212774277,0.2366359829902649,-0.01890072040259838
1774158601678071000,4.272071044921875,-0.1639423370361328,0.305632621049881,0.13185682892799377
1774158601698065200,4.292065185546875,-0.1487167775630951,0.3981899917125702,0.016997359693050385
1774158601718059000,4.31205908203125,0.02478683926165104,0.7421308159828186,-0.031070567667484283
1774158601738052000,4.332052001953125,0.1690388172864914,0.5934361815452576,0.07027655839920044
1774158601758046200,4.352046142578125,0.1554204821586609,0.49351784586906433,0.4217829406261444
1774158601778040000,4.3720400390625,0.06583546847105026,0.7764232754707336,0.5424603223800659
1774158601798034200,4.3920341796875,0.18789267539978027,0.580929696559906,0.4706186354160309
1774158601818028300,4.4120283203125,0.4473080039024353,0.15328089892864227,0.18500180542469025
1774158601838022100,4.432022216796875,0.8608300685882568,0.43895044922828674,-0.5499252080917358
1774158601858016300,4.452016357421875,0.6506523489952087,-0.594446063041687,-0.13869822025299072
1774158601878010000,4.472010009765625,0.6443979144096375,-0.1634717434644699,-1.5315860509872437
1774158601898004000,4.49200390625,0.18451045453548431,-0.029225530102849007,-1.2307708263397217
1774158601917998000,4.511998046875,-0.45472729206085205,-0.5301072597503662,-0.7007548809051514
1774158601937992200,4.5319921875,-0.590415894985199,-0.3591911792755127,-0.12158555537462234
1774158601957986000,4.551986083984375,-0.356550931930542,-0.23079858720302582,0.2183118313550949
1774158601977980200,4.571980224609375,-0.048878058791160583,-0.6081653237342834,0.3614705801010132
1774158601997973200,4.59197314453125,-0.024119984358549118,-0.9662558436393738,0.6066848635673523
1774158602017967000,4.611967041015625,0.5051888823509216,-0.8759528398513794,0.9981207847595215
1774158602037961200,4.631961181640625,1.4715901613235474,0.6010698676109314,1.6298998594284058
1774158602057955000,4.651955078125,1.998926043510437,2.8492190837860107,2.401235342025757
1774158602077949000,4.671948974609375,2.4978251457214355,0.838172972202301,1.7771143913269043
1774158602097943000,4.691943115234375,2.7960352897644043,-0.4798467755317688,-0.3391953706741333
1774158602117937200,4.711937255859375,3.207228899002075,0.5731292963027954,-1.0310428142547607
1774158602137931000,4.731930908203125,2.680899143218994,0.9209684729576111,-1.7082899808883667
1774158602157925000,4.751925048828125,1.1519795656204224,1.4530569314956665,-1.8417412042617798
1774158602177919200,4.771919189453125,-0.02347656339406967,1.4377522468566895,-0.7436072826385498
1774158602197913000,4.7919130859375,-0.3071615397930145,0.33083757758140564,0.6257821321487427
1774158602217907200,4.8119072265625,-0.06238428130745888,-0.6000165939331055,0.8817412257194519
1774158602237900300,4.831900390625,0.3553972542285919,-0.6757731437683105,0.6254910230636597
1774158602257894100,4.85189404296875,0.24993127584457397,0.06557128578424454,-0.038248054683208466
1774158602277888000,4.871887939453125,0.15723249316215515,0.7454150319099426,-0.37117406725883484
1774158602297882000,4.891882080078125,0.2155487984418869,1.5428000688552856,-0.6347127556800842
1774158602317876200,4.911876220703125,0.0712755098938942,0.41766780614852905,0.16756556928157806
1774158602337870000,4.9318701171875,0.4010925590991974,0.4545680284500122,0.7502542734146118
1774158602357864000,4.951864013671875,0.351136714220047,0.30984121561050415,0.4220026433467865
1774158602377858000,4.971858154296875,0.30152627825737,0.2004215121269226,-0.054714642465114594
1774158602397852000,4.991851806640625,0.28454065322875977,0.18746604025363922,-0.21981625258922577
1774158602417846000,5.011845947265625,0.2765596807003021,-0.18293146789073944,0.24857598543167114
1774158602437840000,5.03183984375,0.2647443115711212,-0.34052589535713196,0.39128679037094116
1774158602457834000,5.051833984375,0.11371458321809769,0.17887307703495026,-0.014315822161734104
1774158602477827000,5.0718271484375,-0.06423091888427734,0.8814991116523743,-0.560005784034729
1774158602497821200,5.0918212890625,-0.14668051898479462,1.10984468460083,-0.7631469368934631
1774158602517815000,5.11181494140625,-0.13430987298488617,0.6763739585876465,-0.5557860136032104
1774158602537809000,5.131808837890625,-0.22808615863323212,0.11549996584653854,-0.27330026030540466
1774158602557803000,5.151802978515625,-0.4727443754673004,-0.07793208211660385,-0.7770920395851135
1774158602577796900,5.171796875,-0.291401743888855,0.07821038365364075,-1.0839800834655762
1774158602597791000,5.191791015625,0.09099914878606796,0.26949113607406616,-0.9985647797584534
1774158602617785000,5.21178515625,0.12475711107254028,0.3494458794593811,-0.7736988663673401
1774158602637779000,5.231779052734375,0.05149807780981064,0.545281171798706,-0.5672410726547241
1774158602657773000,5.25177294921875,-0.00815246906131506,0.5310734510421753,-0.3586524426937103
1774158602677767000,5.271766845703125,0.07238738238811493,-2.16080641746521,1.8497799634933472
1774158602697760000,5.291760009765625,-0.33077284693717957,-1.7666326761245728,1.9587451219558716
1774158602717754000,5.311754150390625,-0.1829189509153366,-0.32578662037849426,0.8912793397903442
1774158602737748000,5.331748046875,0.00566960358992219,1.0932539701461792,-0.40073543787002563
1774158602757741800,5.351741943359375,-0.038533277809619904,1.5134108066558838,-0.7494673132896423
1774158602777736000,5.37173583984375,-0.053880009800195694,1.542539358139038,-0.5104688405990601
1774158602797730000,5.39172998046875,0.04693954437971115,0.879197359085083,0.2617144286632538
1774158602817724000,5.411723876953125,-0.14631140232086182,0.4254751205444336,0.6773688793182373
1774158602837718000,5.431718017578125,-0.2324867695569992,-0.1851016730070114,1.117992639541626
1774158602857712000,5.451712158203125,-0.2093857079744339,-1.947292685508728,2.213841676712036
1774158602877706000,5.4717060546875,-0.0564504936337471,-5.061739444732666,3.644416332244873
1774158602897699000,5.491698974609375,-0.5161038637161255,-3.756856679916382,0.7352508306503296
1774158602917693000,5.51169287109375,-0.29819414019584656,1.2339154481887817,0.5573985576629639
1774158602937687000,5.53168701171875,-0.35800260305404663,1.0717236995697021,-0.1538904905319214
1774158602957681000,5.551680908203125,-0.20853696763515472,0.3655686676502228,-0.3322450518608093
1774158602977675000,5.571675048828125,-0.23869459331035614,-0.2605370581150055,-0.2287607491016388
1774158602997668900,5.5916689453125,-0.037394244223833084,0.09253525733947754,-0.2863848805427551
1774158603017663000,5.6116630859375,-0.21054258942604065,0.07082942873239517,-0.11537692695856094
1774158603037657000,5.631656982421875,-0.3282681703567505,-0.3527207672595978,0.3288436532020569
1774158603057651000,5.65165087890625,-0.4669320285320282,-0.9411118626594543,0.8702965378761292
1774158603077645000,5.67164501953125,-0.5653813481330872,-0.9921478629112244,1.0037691593170166
1774158603097638100,5.69163818359375,-0.008235825225710869,-0.5648071765899658,0.7058018445968628
1774158603117632000,5.711632080078125,0.21886283159255981,-0.596625566482544,0.38444381952285767
1774158603137625900,5.7316259765625,0.29267260432243347,-0.9676156044006348,0.43701913952827454
1774158603157620000,5.751619873046875,0.46696797013282776,-1.5893322229385376,0.4280426800251007
1774158603177614000,5.771614013671875,0.692114531993866,-2.296370029449463,0.3717024624347687
1774158603197608000,5.79160791015625,0.8120809197425842,-1.8217909336090088,0.2607080340385437
1774158603217602000,5.81160205078125,0.6837735176086426,-1.3937392234802246,-0.05001949146389961
1774158603237596200,5.83159619140625,0.6586106419563293,-0.9661210775375366,0.012997024692595005
1774158603257590000,5.851590087890625,0.7859228253364563,0.3773358464241028,-0.002852511825039983
1774158603277583000,5.8715830078125,0.7798460125923157,0.30040988326072693,0.08305148035287857
1774158603297577000,5.891576904296875,0.8096083998680115,-0.3265339136123657,0.6895304918289185
1774158603317570800,5.91157080078125,0.943466067314148,-0.18750278651714325,0.8342781066894531
1774158603337565000,5.93156494140625,0.5643326044082642,-0.13848064839839935,0.3147025406360626
1774158603357559000,5.95155908203125,-0.028312064707279205,0.03827734664082527,-0.2130853831768036
1774158603377553000,5.971552978515625,-0.579889714717865,0.995162844657898,-0.7245542407035828
1774158603397547000,5.991547119140625,-0.46234235167503357,1.4834331274032593,-0.4346925914287567
1774158603417541000,6.011541015625,0.272306352853775,-0.4855419397354126,-0.08743716776371002
1774158603437535000,6.031534912109375,0.33458518981933594,-0.6575096845626831,0.08451275527477264
1774158603457529000,6.051529052734375,0.2451261281967163,0.01665940321981907,-0.1813974827528
1774158603477522000,6.07152197265625,0.1192249283194542,0.6621366739273071,-0.33168500661849976
1774158603497516000,6.09151611328125,-0.003379817819222808,0.5132169723510742,0.07157937437295914
1774158603517510000,6.111510009765625,-0.018814433366060257,-0.1957455277442932,0.64906907081604
1774158603537504000,6.13150390625,0.2427993267774582,-0.13394394516944885,0.3155592978000641
1774158603557497900,6.151497802734375,0.18199589848518372,-0.01895984262228012,0.03316221386194229
1774158603577492000,6.171491943359375,0.0408579520881176,0.054000385105609894,-0.0954306498169899
1774158603597486000,6.191486083984375,-0.0636996179819107,0.22086979448795319,-0.3437834680080414
1774158603617480000,6.21147998046875,-0.11582806706428528,0.32125580310821533,-0.7858157157897949
1774158603637474000,6.23147412109375,-0.07809080928564072,0.4710748493671417,-0.8764079809188843
1774158603657467100,6.251467041015625,-0.01558348722755909,0.6744982600212097,-0.964965283870697
1774158603677461000,6.2714609375,-0.050938814878463745,0.7152305245399475,-1.0882182121276855
1774158603697454800,6.291454833984375,0.08762705326080322,0.8472335338592529,-0.9327255487442017
1774158603717449000,6.311448974609375,0.06809409707784653,0.3211599290370941,-0.42461147904396057
1774158603737443000,6.331443115234375,0.03275049105286598,0.07195168733596802,-0.16743160784244537
1774158603757437000,6.35143701171875,0.04164757952094078,-0.2720980942249298,-0.5370346903800964
1774158603777431000,6.37143115234375,0.14884726703166962,-0.37954917550086975,-0.9968717694282532
1774158603797425200,6.391425048828125,0.4522380530834198,-0.21501457691192627,-0.9209461212158203
1774158603817418000,6.41141796875,0.5063763856887817,-0.33949366211891174,-0.8493294715881348
1774158603837412000,6.431412109375,0.34441304206848145,-0.03286926820874214,-0.6244667768478394
1774158603857406000,6.451406005859375,0.09962353110313416,0.06882939487695694,-0.49335458874702454
1774158603877399800,6.47139990234375,0.06964033097028732,-0.1548074185848236,-0.11565016955137253
1774158603897394000,6.491393798828125,0.0868062674999237,-0.028065988793969154,0.27618205547332764
1774158603917388000,6.511387939453125,0.015904931351542473,0.39916735887527466,0.33002105355262756
1774158603937382000,6.5313818359375,0.010748784057796001,0.5867724418640137,0.31197628378868103
1774158603957376000,6.5513759765625,-0.06251770257949829,0.2592747211456299,0.10530431568622589
1774158603977370000,6.5713701171875,0.017177654430270195,-0.4748714566230774,-0.08010495454072952
1774158603997363200,6.59136328125,-0.16166239976882935,-0.43506091833114624,0.1557736098766327
1774158604017357000,6.611357177734375,-0.42503970861434937,-1.1640591621398926,0.3077082931995392
1774158604037351200,6.63135107421875,-0.4004587233066559,-1.0053702592849731,0.005018194206058979
1774158604057345000,6.651344970703125,-0.40254080295562744,-0.5445911288261414,-0.15358662605285645
1774158604077339000,6.6713388671875,-0.465677410364151,0.1893123984336853,0.04184012487530708
1774158604097333000,6.6913330078125,-0.4161074757575989,0.08213881403207779,0.1751161515712738
1774158604117326800,6.711326904296875,-0.3097724914550781,0.10504279285669327,0.13284219801425934
1774158604137321000,6.731321044921875,-0.37428224086761475,0.300249844789505,0.06293395906686783
1774158604157314000,6.75131396484375,-0.38054680824279785,0.15771985054016113,0.08196570724248886
1774158604177308200,6.77130810546875,-0.4209544062614441,-0.023671241477131844,0.12950658798217773
1774158604197302000,6.791302001953125,-0.3151877820491791,-0.3015688955783844,0.20001937448978424
1774158604217296100,6.811296142578125,-0.22492845356464386,-0.45064520835876465,0.24979758262634277
1774158604237290000,6.8312900390625,0.14089959859848022,-0.28951677680015564,0.20422184467315674
1774158604257283800,6.851283935546875,0.283552885055542,-0.31495368480682373,0.015396000817418098
1774158604277278000,6.87127783203125,0.12331660836935043,-0.2903412878513336,0.033798445016145706
1774158604297272000,6.89127197265625,-0.010232930071651936,-0.30789124965667725,0.04727936536073685
1774158604317265200,6.91126513671875,-0.029500899836421013,-0.22744540870189667,0.05492183938622475
1774158604337259000,6.931259033203125,0.07759518921375275,-0.06531136482954025,0.029346436262130737
1774158604357253000,6.951253173828125,0.16305017471313477,0.05161073058843613,-0.0877666026353836
1774158604377247000,6.9712470703125,0.3751986622810364,-0.2503208816051483,-0.06908479332923889
1774158604397240800,6.99124072265625,0.5180623531341553,-0.5646892189979553,0.08089351654052734
1774158604417235000,7.01123486328125,0.4670843780040741,-0.5575844645500183,0.18767935037612915
1774158604437228800,7.031228759765625,0.6519066691398621,-0.16695916652679443,-0.11956581473350525
1774158604457223000,7.051222900390625,0.7379664778709412,0.910135805606842,-0.49629712104797363
1774158604477216000,7.071216064453125,0.6996433138847351,1.3830578327178955,-0.5589436888694763
1774158604497210000,7.091210205078125,0.499559223651886,0.9361432194709778,-0.39473986625671387
1774158604517204000,7.111203857421875,0.3498743772506714,0.5272587537765503,-0.5067377686500549
1774158604537198000,7.131197998046875,0.21792887151241302,0.8436849117279053,-0.3819747865200043
1774158604557192200,7.151192138671875,0.19979806244373322,0.7221568822860718,-0.2567817270755768
1774158604577185800,7.171185791015625,0.07178417593240738,0.4930562973022461,-0.19459611177444458
1774158604597180000,7.191179931640625,-0.04590757191181183,0.2288646101951599,-0.010386860929429531
1774158604617174000,7.211174072265625,-0.02448643371462822,-0.09209530800580978,0.18521539866924286
1774158604637167000,7.2311669921875,0.1636994481086731,-0.4163269102573395,0.17278748750686646
1774158604657161000,7.251160888671875,0.254523903131485,-0.8292417526245117,0.21583402156829834
1774158604677155000,7.271155029296875,0.3049372732639313,-1.07547926902771,0.37381407618522644
1774158604697149000,7.29114892578125,0.20992286503314972,-0.8113282918930054,0.6921132206916809
1774158604717143000,7.31114306640625,0.3214515447616577,-0.7763977646827698,0.8829859495162964
1774158604737137200,7.33113720703125,0.41919007897377014,-1.4218171834945679,0.4553070664405823
1774158604757130800,7.351130859375,0.3306141495704651,-0.734106183052063,-0.19699189066886902
1774158604777124900,7.371124755859375,0.15266624093055725,0.12645594775676727,0.01636113040149212
1774158604797118000,7.391117919921875,0.10538288205862045,0.2456507831811905,0.006208627484738827
1774158604817112000,7.411112060546875,0.08551543205976486,0.13173113763332367,0.027482490986585617
1774158604837106000,7.43110595703125,0.011297395452857018,0.2146582454442978,-0.07186593115329742
1774158604857100000,7.45110009765625,0.08181523531675339,0.1717453896999359,-0.3050456643104553
1774158604877094100,7.47109423828125,0.08061628043651581,-0.15919391810894012,-0.09161540120840073
1774158604897088000,7.491087890625,0.05620548129081726,-0.29144996404647827,0.14361682534217834
1774158604917082000,7.51108203125,0.09470760077238083,-0.2911050617694855,0.2354908138513565
1774158604937076000,7.531075927734375,0.0995849147439003,-0.26185691356658936,0.22500568628311157
1774158604957068800,7.55106884765625,0.05620068684220314,-0.49922046065330505,0.01841868832707405
1774158604977063000,7.57106298828125,0.042031072080135345,-0.6296133399009705,-0.09811937808990479
1774158604997057000,7.59105712890625,-0.023333817720413208,-0.6546744704246521,-0.22391697764396667
1774158605017051000,7.61105078125,0.15022918581962585,-0.7896256446838379,-0.4269702434539795
1774158605037045000,7.631044921875,0.43730542063713074,-0.3422556221485138,-0.5143200755119324
1774158605057039000,7.6510390625,0.5761682391166687,0.21837441623210907,-0.7412911653518677
1774158605077033000,7.671032958984375,0.4089965522289276,0.22108285129070282,-0.7816423177719116
1774158605097025800,7.69102587890625,0.11621502041816711,-0.23593769967556,-0.7144230604171753
1774158605117020000,7.71102001953125,-0.21768918633460999,-0.39023351669311523,-0.1683163046836853
1774158605137014000,7.731013916015625,-0.3187367022037506,0.1724332869052887,0.08938314020633698
1774158605157008000,7.7510078125,-0.33568426966667175,0.4721457064151764,-0.2729188799858093
1774158605177002000,7.771001953125,-0.26523593068122864,0.37650972604751587,-0.09393288940191269
1774158605196996000,7.79099609375,-0.15431606769561768,0.15517067909240723,0.22902892529964447
1774158605216990000,7.810989990234375,-0.1029151976108551,0.14684909582138062,0.1264716535806656
1774158605236984000,7.830984130859375,-0.09767196327447891,0.3383900225162506,-0.09556274116039276
1774158605256977200,7.85097705078125,-0.11048043519258499,0.5284513235092163,-0.15168540179729462
1774158605276970800,7.870970703125,-0.23157836496829987,0.8643454313278198,-0.1587134748697281
1774158605296965600,7.890965576171875,-0.3349936902523041,1.3844221830368042,-0.27464035153388977
1774158605316959700,7.910959716796875,-0.3294207751750946,1.6163043975830078,-0.4012361168861389
1774158605336953600,7.93095361328125,-0.3852033317089081,1.5884733200073242,-0.1804446130990982
1774158605356947700,7.95094775390625,-0.37882694602012634,1.3416248559951782,-0.24596555531024933
1774158605376941600,7.970941650390625,-0.37121856212615967,0.996508777141571,-0.13775067031383514
1774158605396934400,7.990934326171875,-0.34017089009284973,0.4197847545146942,0.06084603816270828
1774158605416928500,8.010928466796875,-0.38763293623924255,-0.33273428678512573,0.3315390646457672
1774158605436922600,8.030922607421875,-0.37134212255477905,-0.9911052584648132,0.34538722038269043
1774158605456916500,8.05091650390625,-0.31315499544143677,-1.360736608505249,0.3160277307033539
1774158605476910600,8.07091064453125,-0.2303253561258316,-1.557258129119873,0.29666149616241455
1774158605496904700,8.09090478515625,-0.15298502147197723,-1.51011323928833,0.28437554836273193
1774158605516898600,8.110898681640625,-0.08928380906581879,-1.0764027833938599,0.11217048019170761
1774158605536891600,8.1308916015625,-0.05775144696235657,-0.7866173386573792,0.03773246333003044
1774158605556885500,8.150885498046875,-0.05258731171488762,-0.7756112813949585,0.08608614653348923
1774158605576879600,8.170879638671876,-0.016639430075883865,-0.7032188773155212,0.10265181213617325
1774158605596873500,8.19087353515625,0.05149248614907265,-0.34162259101867676,-0.0537969172000885
1774158605616867600,8.21086767578125,0.10989214479923248,-0.39703309535980225,-0.1621694713830948
1774158605636861400,8.230861328125,0.16229623556137085,-0.6154898405075073,-0.09838409721851349
1774158605656855600,8.25085546875,0.2586051821708679,-0.5714262127876282,-0.14731328189373016
1774158605676848600,8.2708486328125,0.2981760501861572,-0.6459294557571411,-0.31556782126426697
1774158605696842800,8.2908427734375,0.3631020486354828,-0.5266446471214294,-0.3876960575580597
1774158605716836600,8.310836669921875,0.46211862564086914,-0.5293466448783875,-0.24810194969177246
1774158605736830700,8.330830810546875,0.4621601700782776,-0.5354633927345276,0.03429778665304184
1774158605756824600,8.350824462890625,0.2912749946117401,-0.7322002053260803,0.2186809480190277
1774158605776818400,8.370818359375,0.10564014315605164,-0.7709859013557434,0.29096364974975586
1774158605796812500,8.3908125,-0.1214502677321434,-0.6929460167884827,0.2234879434108734
1774158605816805600,8.4108056640625,-0.23700694739818573,-0.6326557397842407,0.20166440308094025
1774158605836799700,8.4307998046875,-0.16790777444839478,-0.5939496159553528,0.21918082237243652
1774158605856793600,8.450793701171875,-0.1009170264005661,-0.6275701522827148,0.26964664459228516
1774158605876787700,8.47078759765625,0.032636504620313644,-0.6948714256286621,0.3631614148616791
1774158605896781600,8.490781494140625,0.16678018867969513,-0.822256326675415,0.4616912007331848
1774158605916775700,8.510775634765626,0.21276447176933289,-0.8070898652076721,0.5425892472267151
1774158605936769500,8.53076953125,0.2033776193857193,-0.7633783221244812,0.5906662344932556
1774158605956763400,8.550763427734376,0.2628886103630066,-0.5878930687904358,0.5249891877174377
1774158605976756500,8.570756591796876,0.1610216498374939,-0.4442181885242462,0.486786425113678
1774158605996750600,8.59075048828125,0.13977600634098053,-0.5043123960494995,0.48272883892059326
1774158606016744700,8.61074462890625,0.20564264059066772,-0.5125488042831421,0.37793850898742676
1774158606036738600,8.630738525390624,0.29595229029655457,-0.38182511925697327,0.30362194776535034
1774158606056732700,8.650732666015625,0.2752145230770111,-0.3820064961910248,0.26025715470314026
1774158606076726800,8.670726806640625,0.23027022182941437,-0.4596285820007324,0.2887183427810669
1774158606096719600,8.6907197265625,0.1194414421916008,-0.5213553309440613,0.2008739858865738
1774158606116713500,8.71071337890625,0.09034108370542526,-0.45394566655158997,0.14158162474632263
1774158606136707600,8.73070751953125,0.1251014620065689,-0.3763507306575775,0.1565486043691635
1774158606156701400,8.750701416015625,0.17651191353797913,-0.40052691102027893,0.14540833234786987
1774158606176695600,8.770695556640625,0.30292099714279175,-0.5199017524719238,0.11292282491922379
1774158606196689700,8.790689697265625,0.4219323396682739,-0.6652291417121887,0.09228891879320145
1774158606216683500,8.81068359375,0.29930388927459717,-0.7331394553184509,0.00443869037553668
1774158606236676600,8.830676513671875,0.16632293164730072,-0.6785436272621155,-0.051541753113269806
1774158606256670700,8.850670654296875,0.21612058579921722,-1.002631425857544,-0.2611280083656311
1774158606276664600,8.87066455078125,0.4926224946975708,-1.207673192024231,-0.3260444104671478
1774158606296658400,8.890658447265626,0.7434975504875183,-1.2094255685806274,-0.21984368562698364
1774158606316652500,8.910652587890626,0.7787953615188599,-0.9738320112228394,-0.2593620717525482
1774158606336646700,8.930646728515624,0.4726192057132721,-0.7536801695823669,-0.1871323436498642
1774158606356640500,8.950640625,0.1136125847697258,-0.6543219089508057,-0.18326888978481293
1774158606376633300,8.97063330078125,-0.006418218370527029,-0.595725953578949,-0.21991665661334991
1774158606396627500,8.99062744140625,-0.011662781238555908,-0.5989909768104553,-0.23087076842784882
1774158606416621600,9.01062158203125,-0.009584450162947178,-0.4521693289279938,-0.17843632400035858
1774158606436615400,9.030615478515625,-0.05014412850141525,-0.24445688724517822,-0.012464392930269241
1774158606456609500,9.050609619140625,-0.18677228689193726,0.032408006489276886,0.12870284914970398
1774158606476603400,9.070603271484375,-0.26249128580093384,0.3307611346244812,0.13520096242427826
1774158606496596500,9.090596435546875,-0.32967936992645264,0.6879709362983704,-0.006292516831308603
1774158606516590300,9.11059033203125,-0.33244797587394714,0.7256098985671997,-0.07745271176099777
1774158606536584400,9.13058447265625,-0.3886271119117737,0.4338419735431671,-0.010706706903874874
1774158606556578300,9.150578369140625,-0.41865718364715576,0.4974862039089203,-0.0788644552230835
1774158606576572400,9.170572509765625,-0.5143938064575195,0.5994522571563721,-0.17203141748905182
1774158606596566500,9.19056640625,-0.5095484852790833,0.6160560250282288,-0.28215286135673523
1774158606616560400,9.210560302734375,-0.47993358969688416,0.5456854104995728,-0.2857646346092224
1774158606636553500,9.230553466796875,-0.59513258934021,0.3464202582836151,-0.16011589765548706
1774158606656547600,9.250547607421876,-0.7822556495666504,0.19827553629875183,-0.09335657954216003
1774158606676541400,9.27054150390625,-1.0863432884216309,0.09891965240240097,-0.04795900359749794
1774158606696535600,9.29053564453125,-1.121603012084961,0.07959948480129242,0.00615136930719018
1774158606716529400,9.310529296875,-0.711540162563324,0.16373620927333832,-0.010010023601353168
1774158606736523300,9.330523193359374,-0.29777097702026367,0.07241534441709518,-0.08070017397403717
1774158606756517400,9.350517333984374,-0.12568069994449615,0.027483822777867317,-0.06330333650112152
1774158606776510500,9.370510498046874,-0.20910687744617462,-0.053943924605846405,-0.03321760892868042
1774158606796504600,9.390504638671874,-0.23884479701519012,-0.02624385431408882,-0.07660502940416336
1774158606816498400,9.41049853515625,-0.11592766642570496,-0.02430533990263939,-0.08724196255207062
1774158606836492500,9.430492431640625,-0.016562465578317642,-0.13734135031700134,0.01618988811969757
1774158606856486700,9.450486572265625,0.0141139542683959,-0.15268833935260773,-0.12827540934085846
1774158606876480500,9.47048046875,0.10502974689006805,0.03051050566136837,-0.1926964819431305
1774158606896473300,9.490473388671875,0.11106579750776291,-0.17337045073509216,-0.12037540972232819
1774158606916467500,9.510467529296875,0.19291113317012787,0.18349525332450867,-0.29432669281959534
1774158606936461600,9.530461669921875,0.11978206038475037,0.48558080196380615,-0.3904004991054535
1774158606956455400,9.550455322265625,0.284149169921875,0.4011567533016205,-0.41836902499198914
1774158606976449500,9.570449462890625,0.36827337741851807,0.44142720103263855,-0.4727765917778015
1774158606996443400,9.590443359375,0.2599319815635681,0.24589446187019348,-0.3636991083621979
1774158607016436500,9.6104365234375,-0.059775449335575104,-0.08482301235198975,-0.16154202818870544
1774158607036430300,9.630430419921876,-0.265916645526886,-0.16917172074317932,-0.05188849940896034
1774158607056424400,9.650424560546876,-0.3105592131614685,-0.20794786512851715,-0.09224231541156769
1774158607076418300,9.670418212890626,-0.2308334857225418,-0.19791415333747864,-0.18227766454219818
1774158607096412400,9.690412353515624,-0.06376300007104874,-0.312284916639328,-0.07516053318977356
1774158607116406500,9.710406494140624,0.061709169298410416,-0.41582515835762024,0.12078899890184402
1774158607136400400,9.730400390625,0.15954172611236572,-0.41409945487976074,0.31554970145225525
1774158607156393500,9.7503935546875,0.2207574099302292,-0.35950303077697754,0.34962618350982666
1774158607176387600,9.7703876953125,0.23883894085884094,-0.28802698850631714,0.3177446722984314
1774158607196381700,9.790381591796875,0.2211768627166748,-0.21387819945812225,0.27942898869514465
1774158607216375600,9.81037548828125,0.21984714269638062,-0.18429340422153473,0.23880484700202942
1774158607236369400,9.830369384765625,0.2167900949716568,-0.13797198235988617,0.19955678284168243
1774158607256363300,9.85036328125,0.14114753901958466,-0.17128732800483704,0.166954904794693
1774158607276356400,9.8703564453125,0.07573577016592026,-0.16241340339183807,0.097281813621521
1774158607296350200,9.89035009765625,-0.007212905213236809,-0.09217546880245209,0.02207946963608265
1774158607316344300,9.91034423828125,-0.04092692583799362,-0.09189343452453613,0.00002157160452043172
1774158607336338200,9.930338134765625,-0.07513682544231415,-0.17761659622192383,-0.002812031889334321
1774158607356332300,9.950332275390625,-0.0971105694770813,-0.21202704310417175,-0.07698159664869308
1774158607376326400,9.970326416015626,0.08272098004817963,-0.12934041023254395,-0.2346324771642685
1774158607396320300,9.9903203125,0.017484450712800026,-0.11305198818445206,-0.1107049435377121
1774158607416313000,10.01031298828125,-0.06509537994861603,-0.3898921012878418,0.04258501157164574
1774158607436307200,10.03030712890625,-0.06932128220796585,-0.6399919390678406,0.0063005066476762295
1774158607456301300,10.05030126953125,-0.03591512516140938,-0.6660405993461609,-0.38386270403862
1774158607476295200,10.070295166015624,0.32671767473220825,-0.7482950091362,-0.3085903227329254
1774158607496289300,10.090289306640624,0.5811368823051453,-0.9950299263000488,-0.04372590780258179
1774158607516283400,10.110283447265624,0.5353097319602966,-0.8138092756271362,-0.22999005019664764
1774158607536276200,10.130276123046874,0.3398292064666748,-0.46181848645210266,-0.460073322057724
1774158607556270300,10.150270263671874,0.17316778004169464,-0.29408329725265503,-0.6203716397285461
1774158607576264400,10.170264404296875,0.21459059417247772,-0.5366296172142029,-0.5021246671676636
1774158607596258000,10.190258056640625,0.14341121912002563,-0.6749597787857056,0.045046571642160416
1774158607616252200,10.210252197265625,-0.016109194606542587,-0.7313967347145081,0.5838983058929443
1774158607636246300,10.230246337890625,-0.0862153097987175,-0.6867030262947083,0.611931324005127
1774158607656239400,10.2502392578125,-0.1381850391626358,-0.3868310749530792,0.2672082781791687
1774158607676233200,10.270233154296875,-0.2932784855365753,-0.2619621157646179,0.07091997563838959
1774158607696227300,10.290227294921875,-0.48586711287498474,-0.08532235771417618,0.02640390954911709
1774158607716221400,10.310221435546875,-0.40546494722366333,0.09370891749858856,-0.1591281294822693
1774158607736215300,10.33021533203125,-0.3402547836303711,0.20978544652462006,-0.1931215226650238
1774158607756209400,10.35020947265625,-0.3860377073287964,0.19096089899539948,0.0007547398563474417
1774158607776202200,10.3702021484375,-0.4218614995479584,0.013968812301754951,0.04370913282036781
1774158607796196000,10.390196044921876,-0.4028923213481903,-0.13597141206264496,0.07455199956893921
1774158607816190200,10.410190185546876,-0.37908685207366943,-0.18108323216438293,0.18291015923023224
1774158607836184300,10.430184326171876,-0.47291800379753113,-0.17971383035182953,0.1876702904701233
1774158607856178200,10.45017822265625,-0.45396217703819275,-0.17407912015914917,0.1432461142539978
1774158607876172300,10.47017236328125,-0.36317792534828186,-0.27340489625930786,0.1586223989725113
1774158607896165400,10.490165283203124,-0.2216314673423767,-0.3482424020767212,0.18062064051628113
1774158607916159200,10.5101591796875,-0.16960102319717407,-0.3713802099227905,0.08642064034938812
1774158607936153000,10.530153076171874,-0.09592253714799881,-0.27365046739578247,0.07857497036457062
1774158607956147200,10.550147216796875,-0.0849820002913475,-0.2317858338356018,0.15928073227405548
1774158607976141300,10.570141357421875,-0.07045925408601761,-0.07159802317619324,0.12221033126115799
1774158607996135200,10.59013525390625,-0.08138354122638702,0.010662231594324112,0.19453565776348114
1774158608016128300,10.610128173828125,-0.04892386496067047,-0.14301282167434692,0.3899299204349518
1774158608036122400,10.630122314453125,0.0747741088271141,-0.1911633014678955,0.18419460952281952
1774158608056116200,10.6501162109375,0.09669271856546402,-0.12668150663375854,-0.006059490609914064
1774158608076110300,10.6701103515625,0.22276276350021362,-0.19110950827598572,0.18645243346691132
1774158608096104200,10.690104248046875,0.3569035232067108,-0.19164159893989563,0.03766215592622757
1774158608116098000,10.71009814453125,0.3842187821865082,0.1965375542640686,-0.33993467688560486
1774158608136092200,10.730092041015626,0.37369048595428467,0.38841697573661804,-0.34575873613357544
1774158608156085200,10.750085205078125,0.39137840270996094,0.43858587741851807,-0.16019925475120544
1774158608176079400,10.770079345703126,0.2873595952987671,0.38007888197898865,-0.10668197274208069
1774158608196073200,10.7900732421875,0.019643209874629974,0.2176942378282547,-0.03476836532354355
1774158608216067300,10.8100673828125,-0.16716422140598297,-0.00006657902849838138,0.08496575802564621
1774158608236061400,10.8300615234375,-0.2541254758834839,-0.22694607079029083,0.1815551519393921
1774158608256055300,10.85005517578125,-0.25076910853385925,-0.1840451955795288,0.15924344956874847
1774158608276048100,10.870048095703124,-0.24361692368984222,-0.16333593428134918,0.15253254771232605
1774158608296042000,10.8900419921875,-0.2986498177051544,-0.1770581305027008,0.22524137794971466
1774158608316036000,10.9100361328125,-0.3379306495189667,-0.1151239275932312,0.26584526896476746
1774158608336030000,10.930030029296875,-0.2584605813026428,0.13798104226589203,0.2487083524465561
1774158608356024000,10.950024169921875,-0.09916307032108307,0.2691025733947754,0.20473609864711761
1774158608376018000,10.970017822265625,0.027653731405735016,0.3369753658771515,0.20601920783519745
1774158608396011000,10.990010986328125,0.1444471925497055,0.3603142499923706,0.20533344149589539
1774158608416004900,11.0100048828125,0.2506311535835266,0.33544084429740906,0.24939864873886108
1774158608435999000,11.0299990234375,0.11417237669229507,0.27108529210090637,0.22499902546405792
1774158608455992800,11.049992919921875,0.007394000422209501,0.2511312961578369,0.14586906135082245
1774158608475987000,11.069987060546875,0.025612419471144676,0.1921611875295639,0.07966846227645874
1774158608495981000,11.08998095703125,0.05380117893218994,0.15652570128440857,0.10062514245510101
1774158608515974100,11.10997412109375,-0.03857242688536644,0.2177720069885254,-0.05253005400300026
1774158608535968000,11.129968017578125,-0.08478199690580368,0.3281283378601074,-0.14344264566898346
1774158608555962000,11.149962158203126,0.00758015550673008,0.16267094016075134,-0.10916350781917572
1774158608575956200,11.169956298828126,0.1148299127817154,0.17830049991607666,-0.3424851894378662
1774158608595950000,11.1899501953125,0.09542079269886017,0.0832568034529686,-0.3056190311908722
1774158608615943000,11.20994287109375,0.06519365310668945,0.02478710561990738,-0.10736294090747833
1774158608635937000,11.22993701171875,0.1145595982670784,0.024440361186861992,-0.10623722523450851
1774158608655931000,11.249930908203124,0.0976964682340622,-0.2300286740064621,-0.31779447197914124
1774158608675925000,11.269925048828124,0.24509231746196747,-0.5315935611724854,-0.24314500391483307
1774158608695919000,11.289919189453125,0.4952494204044342,-0.41877010464668274,-0.25727415084838867
1774158608715913000,11.309912841796875,0.4635881781578064,-0.10837121307849884,-0.33140695095062256
1774158608735906000,11.329906005859375,0.1994878053665161,0.11267488449811935,-0.40457358956336975
1774158608755900000,11.34989990234375,0.012812734581530094,0.12332379817962646,-0.4313519299030304
1774158608775894000,11.36989404296875,-0.03163782134652138,-0.015679361298680305,-0.48291632533073425
1774158608795887900,11.389887939453125,0.0011832424206659198,0.07599223405122757,-0.40777844190597534
1774158608815882000,11.409882080078125,-0.021343370899558067,0.1437622308731079,-0.14254942536354065
1774158608835876000,11.4298759765625,-0.04715366289019585,0.17096562683582306,-0.013481986708939075
1774158608855869000,11.449868896484375,-0.14504054188728333,0.19246238470077515,0.011205783113837242
1774158608875863000,11.469863037109375,-0.2258821278810501,0.27764785289764404,-0.03759105131030083
1774158608895857200,11.489857177734375,-0.28545570373535156,0.2508798837661743,0.026854516938328743
1774158608915851000,11.50985107421875,-0.39815109968185425,0.3540707230567932,-0.06303329765796661
1774158608935844900,11.529844970703126,-0.33785155415534973,0.37088993191719055,-0.09969676285982132
1774158608955839000,11.5498388671875,-0.18562179803848267,0.3170306980609894,-0.27600762248039246
1774158608975832000,11.56983203125,-0.27139660716056824,0.309927761554718,-0.26369184255599976
1774158608995826000,11.589825927734376,-0.3326953947544098,0.10957229882478714,0.03759078308939934
1774158609015820000,11.609820068359374,-0.33809521794319153,-0.03664243221282959,0.19572901725769043
1774158609035814100,11.629814208984374,-0.3344416320323944,-0.1665538251399994,0.24406619369983673
1774158609055808000,11.64980810546875,-0.2716035544872284,-0.25679904222488403,0.3206288814544678
1774158609075802000,11.669802001953125,-0.27479374408721924,-0.3332487940788269,0.2797493636608124
1774158609095795000,11.689794921875,-0.28669941425323486,-0.31526899337768555,0.18877604603767395
1774158609115789000,11.7097890625,-0.23709537088871002,-0.31306976079940796,0.1489439457654953
1774158609140780800,11.73478076171875,-0.20425859093666077,-0.21445930004119873,0.039991091936826706
1774158609160775000,11.75477490234375,-0.15578800439834595,0.06537234783172607,-0.1850513517856598
1774158609180769000,11.77476904296875,-0.17120742797851562,-0.2417878657579422,0.039544478058815
1774158609200763000,11.794762939453125,-0.0620226226747036,-0.18449820578098297,-0.06358989328145981
1774158609220757000,11.814757080078126,-0.04416533187031746,-0.04917926341295242,-0.22761771082878113
1774158609240751000,11.834751220703126,-0.06060422584414482,-0.129954531788826,-0.07827163487672806
1774158609260744200,11.854744140625,0.10060863196849823,-0.3188706636428833,-0.16917145252227783
1774158609280738000,11.874738037109376,0.2562248706817627,-0.2161346971988678,-0.3886635899543762
1774158609300733000,11.89473291015625,0.3833833336830139,-0.1720852106809616,-0.38642388582229614
1774158609320726800,11.914726806640624,0.35961809754371643,-0.10764976590871811,-0.40258365869522095
1774158609340721000,11.934720947265625,0.3174924850463867,0.06566369533538818,-0.2938302755355835
1774158609360715000,11.954715087890625,0.2496977150440216,0.1485428661108017,-0.08893333375453949
1774158609380707800,11.974707763671875,0.0656365305185318,0.036675989627838135,-0.05034333094954491
1774158609400701700,11.99470166015625,-0.07986687123775482,-0.1991565078496933,-0.1612863540649414
1774158609420695800,12.01469580078125,-0.15387718379497528,-0.41956451535224915,-0.06282822787761688
1774158609440690000,12.03468994140625,-0.09990102797746658,-0.6780961751937866,0.39636173844337463
1774158609460683800,12.054683837890625,-0.006317817140370607,-0.8110073804855347,0.8012167811393738
1774158609480676900,12.0746767578125,0.1553853303194046,-0.6491966247558594,0.7401382923126221
1774158609500671000,12.0946708984375,0.18637040257453918,-0.5126143097877502,0.7009570598602295
1774158609520664800,12.114664794921875,0.2046506106853485,-0.31559789180755615,0.7678375244140625
1774158609540659000,12.134658935546875,0.18313759565353394,0.10190239548683167,0.9313918352127075
1774158609560652800,12.15465283203125,0.19245466589927673,0.01685594581067562,1.073919653892517
1774158609580646700,12.174646728515626,0.21868041157722473,-0.24441853165626526,1.0828628540039062
1774158609600639700,12.1946396484375,0.31025880575180054,-0.6253541707992554,0.9817535281181335
1774158609620633900,12.2146337890625,0.2845830023288727,-0.7841459512710571,0.9717214107513428
1774158609640628000,12.2346279296875,0.13902978599071503,-0.6670030951499939,0.9555233120918274
1774158609660621800,12.254621826171874,0.020598219707608223,-0.41732504963874817,0.9410108923912048
1774158609680616000,12.274615966796874,0.048642370849847794,-0.21889212727546692,0.7029086351394653
1774158609700610000,12.294610107421875,0.21614961326122284,-0.05945240706205368,0.1786818653345108
1774158609720602600,12.3146025390625,0.23971512913703918,0.40462711453437805,-0.0675489529967308
1774158609740596700,12.3345966796875,0.2435830980539322,0.369519978761673,0.11749999970197678
1774158609760590800,12.3545908203125,0.25244104862213135,-0.15929964184761047,0.42394542694091797
1774158609780584700,12.374584716796875,0.17650818824768066,-0.2989576756954193,0.47119230031967163
1774158609800578800,12.394578857421875,0.04872865602374077,0.0673643946647644,0.18356743454933167
1774158609820572000,12.414572021484375,0.10132795572280884,0.12682266533374786,-0.014104899950325489
1774158609840566000,12.43456591796875,0.28172674775123596,-0.43722474575042725,0.07266062498092651
1774158609860560000,12.454559814453125,0.49579429626464844,-0.7616440653800964,0.15705247223377228
1774158609880554000,12.474553955078125,0.7973001003265381,-0.3975297808647156,0.15609346330165863
1774158609900547800,12.4945478515625,0.8034504055976868,-0.21039637923240662,-0.002395247109234333
1774158609920541700,12.514541748046875,0.5869564414024353,-0.1281033754348755,-0.25470685958862305
1774158609940534800,12.53453466796875,0.43618476390838623,0.08252283930778503,-0.5344929695129395
1774158609960529000,12.55452880859375,0.24516022205352783,0.3187233805656433,-0.7664303183555603
1774158609980522800,12.574522705078126,0.029453761875629425,0.4131058156490326,-0.6988118886947632
1774158610000516900,12.594516845703126,-0.20203565061092377,0.3983364701271057,-0.5458310842514038
1774158610020511000,12.614510986328124,-0.37048912048339844,0.743351399898529,-0.4365488290786743
1774158610040504800,12.6345048828125,-0.4385209083557129,1.50680673122406,-0.3389807343482971
1774158610060497700,12.65449755859375,-0.43986979126930237,1.7695999145507812,-0.12393206357955933
1774158610080491800,12.67449169921875,-0.4273017942905426,1.6715953350067139,0.19591385126113892
1774158610100486000,12.69448583984375,-0.4371379017829895,1.4085350036621094,0.4287811815738678
1774158610120479700,12.714479736328125,-0.4350220263004303,1.0650228261947632,0.45920488238334656
1774158610140473900,12.734473876953125,-0.43932169675827026,0.9988177418708801,0.43286195397377014
1774158610160468000,12.754468017578125,-0.5588805675506592,0.7026308178901672,0.21561671793460846
1774158610180461000,12.7744609375,-0.7058455348014832,0.5156923532485962,-0.12468574196100235
1774158610200455000,12.794454833984375,-0.703007698059082,0.9727661609649658,-0.24286112189292908
1774158610220448800,12.81444873046875,-0.6388055086135864,1.0775799751281738,-0.2826758921146393
1774158610240443000,12.83444287109375,-0.5444374680519104,0.8541122674942017,-0.16448268294334412
1774158610260436700,12.854436767578125,-0.4751769006252289,0.47021037340164185,0.048760347068309784
1774158610280429800,12.874429931640625,-0.42866426706314087,0.32095590233802795,0.18121452629566193
1774158610300422400,12.89442236328125,-0.3345697224140167,0.3976682722568512,0.11451859027147293
1774158610320416500,12.91441650390625,-0.2211156040430069,0.35008183121681213,-0.04092852398753166
1774158610340410400,12.934410400390625,-0.13217401504516602,0.19196251034736633,-0.16358093917369843
1774158610360404500,12.954404541015625,-0.1040201410651207,0.07988764345645905,-0.13633812963962555
1774158610380398600,12.974398681640626,-0.0716499537229538,-0.10495650768280029,0.12763012945652008
1774158610400391700,12.9943916015625,0.02893684245646,-0.35811901092529297,0.26523301005363464
1774158610420385300,13.01438525390625,0.2805240750312805,-0.6236473321914673,-0.10253489762544632
1774158610440379400,13.03437939453125,0.5594654083251953,-0.40071412920951843,-0.4354042112827301
1774158610460373500,13.05437353515625,0.6031274199485779,-0.16172178089618683,-0.45969727635383606
1774158610480367400,13.074367431640624,0.5421620607376099,-0.28221145272254944,-0.34221911430358887
1774158610500360400,13.0943603515625,0.41213536262512207,-0.2852807343006134,-0.19681212306022644
1774158610520354600,13.1143544921875,0.2200506031513214,-0.2110070437192917,-0.0062464443035423756
1774158610540348400,13.134348388671874,0.08726033568382263,-0.11672049015760422,0.1745520979166031
1774158610560342500,13.154342529296875,0.03598756343126297,0.020680245012044907,0.20320478081703186
1774158610580336600,13.174336669921875,0.09190142899751663,0.2026553750038147,0.15109550952911377
1774158610600330200,13.194330322265625,0.13736052811145782,-0.02496154233813286,0.0939193069934845
1774158610620323300,13.2143232421875,0.11323387920856476,-0.2773011028766632,0.08456095308065414
1774158610640317400,13.2343173828125,0.14872263371944427,-0.2884533703327179,0.057312559336423874
1774158610660311600,13.2543115234375,0.15959471464157104,-0.2696295976638794,0.07673712074756622
1774158610680305400,13.274305419921875,0.1687016636133194,-0.10868334025144577,0.11770905554294586
1774158610700299500,13.294299560546875,0.16013135015964508,0.01817074790596962,0.06744881719350815
1774158610720293600,13.314293701171875,0.12857049703598022,0.07375518232584,0.04754594713449478
1774158610740286500,13.334286376953125,0.11306716501712799,0.034993935376405716,0.11086685955524445
1774158610760280300,13.3542802734375,0.10627264529466629,0.0494178831577301,0.1607971340417862
1774158610780274400,13.3742744140625,0.09746956825256348,0.1648573875427246,0.059528838843107224
1774158610800268300,13.394268310546876,0.0721876472234726,0.31398242712020874,0.016233298927545547
1774158610820262400,13.414262451171876,0.032767001539468765,0.37046489119529724,0.07040678709745407
1774158610840256500,13.434256591796874,0.019278889521956444,0.336899995803833,0.12086010724306107
1774158610860249600,13.45424951171875,0.0364253856241703,0.2746739089488983,0.06629832834005356
1774158610880243500,13.474243408203124,0.041261687874794006,0.2602579593658447,0.029206886887550354
1774158610900237600,13.494237548828124,0.026794595643877983,0.2507656514644623,0.08810988813638687
1774158610920231700,13.514231689453124,0.06039996072649956,0.21109706163406372,0.12634381651878357
1774158610940225300,13.534225341796875,0.09059222042560577,0.12145106494426727,0.1823042929172516
1774158610960218400,13.55421826171875,0.11184877157211304,-0.09569669514894485,0.10741566866636276
1774158610980212500,13.57421240234375,0.2693670094013214,-0.5302097797393799,-0.34928369522094727
1774158611000206600,13.59420654296875,0.54813152551651,-0.5214826464653015,-0.27808356285095215
1774158611020200400,13.614200439453125,0.6065500974655151,-0.2586075961589813,-0.18358980119228363
1774158611040194600,13.634194580078125,0.36470234394073486,-0.19503153860569,-0.05022348836064339
1774158611060188400,13.6541884765625,0.15508386492729187,-0.21557623147964478,-0.008082959800958633
1774158611080181200,13.67418115234375,-0.036314599215984344,-0.09853829443454742,-0.24859410524368286
1774158611100175400,13.69417529296875,-0.14114168286323547,0.22635936737060547,-0.3737006187438965
1774158611120169500,13.71416943359375,-0.15277649462223053,0.5276244282722473,-0.38375937938690186
1774158611140163300,13.734163330078125,-0.14852263033390045,0.7749018669128418,-0.16109780967235565
1774158611160157400,13.754157470703126,-0.06474331021308899,0.4493618309497833,0.01423646043986082
1774158611180150500,13.774150634765626,-0.04301031678915024,0.34431397914886475,0.13776426017284393
1774158611200144600,13.79414453125,-0.09602107107639313,0.400932252407074,0.00287461606785655
1774158611220138500,13.814138427734376,-0.20886799693107605,0.533417820930481,-0.0658370703458786
1774158611240132600,13.834132568359376,-0.2802654802799225,0.4063088893890381,0.028088092803955078
1774158611260126500,13.85412646484375,-0.25711435079574585,0.19987636804580688,0.05084720253944397
1774158611280120300,13.874120361328124,-0.25310710072517395,0.10441082715988159,0.06655239313840866
1774158611300114200,13.8941142578125,-0.25306928157806396,0.011063303798437119,0.0972738191485405
1774158611320108300,13.9141083984375,-0.2753303647041321,0.02056865766644478,0.0659119039773941
1774158611340102100,13.93410205078125,-0.27353647351264954,0.07998351752758026,0.05631973221898079
1774158611360096000,13.954095947265625,-0.25962013006210327,0.006939398590475321,0.1644773632287979
1774158611380090000,13.974090087890625,-0.21334956586360931,-0.017956629395484924,0.23192884027957916
1774158611400084000,13.994083984375,-0.1508297324180603,-0.10272478312253952,0.14112542569637299
1774158611420077000,14.0140771484375,-0.10643430054187775,-0.031153392046689987,0.0017747305100783706
1774158611440071200,14.0340712890625,-0.10293810069561005,-0.05517616868019104,-0.03225993365049362
1774158611460065000,14.05406494140625,-0.07749425619840622,-0.05923136696219444,-0.05558310076594353
1774158611480059100,14.07405908203125,-0.042267560958862305,-0.2665046453475952,0.0018319884547963738
1774158611500053200,14.09405322265625,0.02647661417722702,-0.34997159242630005,0.00839641410857439
1774158611520046000,14.114046142578125,0.1367943286895752,-0.2728765308856964,-0.12521597743034363
1774158611540040000,14.1340400390625,0.2613663673400879,-0.42754653096199036,-0.1779385805130005
1774158611560034000,14.154033935546876,0.3957103192806244,-0.5402677655220032,-0.1632847934961319
1774158611580028200,14.174028076171876,0.3927414119243622,-0.37248408794403076,-0.15152454376220703
1774158611600022000,14.19402197265625,0.2405468225479126,-0.3618892431259155,-0.06782218813896179
1774158611620016000,14.21401611328125,0.13217800855636597,-0.2260163575410843,0.05765850096940994
1774158611640009200,14.23400927734375,0.029393041506409645,-0.42644691467285156,0.17064976692199707
1774158611660003000,14.254003173828124,-0.007346596103161573,-0.46076467633247375,0.20359547436237335
1774158611679997200,14.2739970703125,-0.049311358481645584,-0.26313841342926025,0.19001947343349457
1774158611699991000,14.293990966796875,-0.1016605794429779,0.03515532240271568,0.2126680612564087
1774158611719985000,14.31398486328125,-0.09816278517246246,-0.12296800315380096,0.24278175830841064
1774158611739978000,14.33397802734375,0.0117900799959898,-0.4236298203468323,0.16275349259376526
1774158611759972000,14.35397216796875,0.14163969457149506,-0.5899516940116882,0.005373460240662098
1774158611779966200,14.37396630859375,0.1400846689939499,-0.34162604808807373,0.019346266984939575
1774158611799960000,14.3939599609375,0.05912989750504494,-0.07060839235782623,0.12973801791667938
1774158611819954200,14.4139541015625,-0.03519393876194954,0.12772707641124725,0.14790743589401245
1774158611839948300,14.4339482421875,-0.09990821778774261,0.3729512095451355,0.036199815571308136
1774158611859941000,14.453941162109375,-0.1100974753499031,0.6691253185272217,-0.01306173950433731
1774158611879935000,14.47393505859375,-0.08527601510286331,0.5779693126678467,0.04489663615822792
1774158611899929000,14.49392919921875,-0.11911121010780334,0.3301142752170563,0.1287451982498169
1774158611919923000,14.5139228515625,-0.07069254666566849,0.1761513203382492,0.19593408703804016
1774158611939917000,14.5339169921875,-0.025945313274860382,0.21556051075458527,0.1552199423313141
1774158611959910100,14.55391015625,-0.004867726005613804,0.3139006793498993,0.08921989053487778
1774158611979904300,14.573904296875,0.04500821977853775,0.33931228518486023,0.06131848320364952
1774158611999898000,14.593898193359376,0.030191192403435707,0.3208928108215332,0.04602128639817238
1774158612019892000,14.61389208984375,0.028558406978845596,0.08126742392778397,-0.05060378834605217
1774158612039886000,14.633885986328124,-0.005705822724848986,-0.08593754470348358,-0.04000866785645485
1774158612059880000,14.6538798828125,0.08878686279058456,-0.07967112958431244,0.024044616147875786
1774158612079873000,14.673873046875,0.09928051382303238,-0.10376740992069244,0.14380164444446564
1774158612099867100,14.6938671875,0.22672155499458313,-0.5649954676628113,-0.18235942721366882
1774158612119861200,14.713861328125,0.592797040939331,-0.793048620223999,-0.5772521495819092
1774158612139855000,14.733855224609375,0.7984122037887573,-0.37719789147377014,-0.6401075124740601
1774158612159849200,14.75384912109375,0.6409128904342651,-0.2412720024585724,-0.5399314165115356
1774158612179842000,14.773842041015625,0.31970635056495667,-0.44929710030555725,-0.2115306258201599
1774158612199836000,14.7938359375,0.022594524547457695,-0.0694134309887886,-0.09798409044742584
1774158612219830000,14.813830078125,-0.23513981699943542,0.2269870787858963,-0.23906131088733673
1774158612239824100,14.83382421875,-0.33657747507095337,0.5609126091003418,-0.3432862460613251
1774158612259818000,14.85381787109375,-0.26058658957481384,0.9493061304092407,-0.33493325114250183
1774158612279812000,14.87381201171875,-0.1592991054058075,1.0103657245635986,-0.18096019327640533
1774158612299804400,14.893804443359375,-0.16109994053840637,0.4587057828903198,0.06919877976179123
1774158612319798500,14.913798583984375,-0.1533445417881012,0.12280501425266266,0.323602557182312
1774158612339792400,14.93379248046875,-0.2055124044418335,0.24313116073608398,0.4297633469104767
1774158612359786200,14.9537861328125,-0.21608436107635498,0.4071009159088135,0.4754301905632019
1774158612379780400,14.9737802734375,-0.26101693511009216,0.5390477776527405,0.4609353840351105
1774158612399773400,14.9937734375,-0.25297901034355164,0.13745613396167755,0.23561465740203857
1774158612419767300,15.013767333984376,-0.27832403779029846,0.1213325560092926,-0.07075513154268265
1774158612439761400,15.033761474609374,-0.30342698097229004,0.31301596760749817,-0.10041742026805878
1774158612459755500,15.053755615234374,-0.2658327519893646,0.3034474849700928,-0.016504408791661263
1774158612479749400,15.073749267578124,-0.21838586032390594,0.18450352549552917,0.20577393472194672
1774158612499743500,15.093743408203125,-0.17043058574199677,-0.15699706971645355,0.37726953625679016
1774158612519736300,15.113736328125,-0.10627797245979309,-0.25737613439559937,0.3055165112018585
1774158612539730400,15.13373046875,-0.11452417820692062,-0.1945953220129013,0.1717427372932434
1774158612559724300,15.153724365234375,-0.08026581257581711,-0.0820101797580719,0.03597424551844597
1774158612579718400,15.173718505859375,0.027114175260066986,-0.09817636758089066,-0.05940340459346771
1774158612599712300,15.193712158203125,0.14153343439102173,-0.11353828012943268,-0.05772321671247482
1774158612619705300,15.213705322265625,0.16255588829517365,-0.0692315325140953,0.09014640748500824
1774158612639699500,15.233699462890625,0.19221951067447662,0.08791893720626831,0.12955692410469055
1774158612659693600,15.253693603515625,0.29398369789123535,0.09221488237380981,0.002514024032279849
1774158612679687400,15.2736875,0.44428345561027527,-0.17987282574176788,-0.18555708229541779
1774158612699681300,15.293681396484375,0.6153774261474609,-0.192137211561203,-0.3492160439491272
1774158612719675400,15.31367529296875,0.5427735447883606,0.2755684554576874,-0.4665527939796448
1774158612739668500,15.33366845703125,0.4081352949142456,0.4381323456764221,-0.47220829129219055
1774158612759662300,15.353662353515626,0.33109962940216064,0.35984551906585693,-0.46593254804611206
1774158612779656400,15.373656494140626,0.38456979393959045,-0.059295546263456345,-0.17629407346248627
1774158612799650300,15.393650390625,0.2606326639652252,-0.025433188304305077,0.09149875491857529
1774158612819644400,15.41364453125,0.02617541141808033,0.24093139171600342,0.27194470167160034
1774158612839637200,15.43363720703125,-0.08385787904262543,0.17981690168380737,0.4912123382091522
1774158612859631400,15.45363134765625,-0.10684335976839066,-0.37367185950279236,0.7413883805274963
1774158612879625200,15.473625244140624,-0.12439438700675964,-1.212948203086853,0.7825019955635071
1774158612899619300,15.493619384765625,-0.09482211619615555,-1.610904335975647,0.567919909954071
1774158612919613400,15.513613525390625,-0.11545655131340027,-0.8166508674621582,0.419982373714447
1774158612939607300,15.533607177734375,-0.16112764179706573,-0.6435667276382446,0.4056580066680908
1774158612959600400,15.553600341796875,-0.16537991166114807,-0.6732585430145264,0.41330820322036743
1774158612979594500,15.573594482421875,-0.09911859035491943,-0.7422613501548767,0.4719667434692383
1774158612999588600,15.593588623046875,-0.034009899944067,-0.6239147186279297,0.38899168372154236
1774158613019582200,15.613582275390625,-0.06652683019638062,-0.13317403197288513,0.27839887142181396
1774158613039576300,15.633576416015625,-0.10651099681854248,0.20776571333408356,0.1707991659641266
1774158613059569400,15.6535693359375,-0.15153945982456207,0.18790306150913239,0.11349406838417053
1774158613079563300,15.673563232421875,-0.2646729350090027,0.29833635687828064,0.14849627017974854
1774158613099557400,15.693557373046875,-0.3771480917930603,0.06291904300451279,0.21762500703334808
1774158613119551500,15.713551513671876,-0.2970753610134125,0.21607929468154907,0.1205730214715004
1774158613139545300,15.73354541015625,-0.17116056382656097,0.16799086332321167,0.1288919299840927
1774158613159539500,15.75353955078125,-0.08672557026147842,0.36036136746406555,0.048643968999385834
1774158613179532300,15.7735322265625,0.007434480357915163,0.21334503591060638,0.06267669796943665
1774158613199526400,15.7935263671875,0.06408737599849701,0.11510848253965378,0.04939844086766243
1774158613219520300,15.813520263671874,0.13476979732513428,-0.06187934800982475,-0.028669994324445724
1774158613239514400,15.833514404296874,0.30660679936408997,-0.37960565090179443,-0.22161361575126648
1774158613259508500,15.853508544921874,0.4634059965610504,-0.7551001906394958,-0.29318341612815857
1774158613279501300,15.873501220703124,0.5173230171203613,-0.7763122320175171,-0.1644858866930008
1774158613299495400,15.893495361328124,0.41745901107788086,-0.35239851474761963,-0.3778280019760132
1774158613319489500,15.913489501953125,0.2504465878009796,-0.4795120060443878,-0.23736675083637238
1774158613339483400,15.9334833984375,0.0995260551571846,-0.2658497989177704,-0.18915393948554993
1774158613359477500,15.9534775390625,-0.06638674437999725,-0.18717335164546967,-0.06391160190105438
1774158613379471600,15.9734716796875,-0.16288799047470093,-0.16968970000743866,0.17918387055397034
1774158613399464400,15.99346435546875,-0.15362603962421417,-0.019574500620365143,0.1700415015220642
1774158613419458300,16.013458251953125,-0.12630361318588257,0.023071497678756714,0.12733452022075653
1774158613439452400,16.033452392578123,-0.07224170863628387,0.22336997091770172,0.04003157094120979
1774158613459446500,16.053446533203125,-0.0736108347773552,0.2646404504776001,-0.03200267255306244
1774158613479440400,16.0734404296875,-0.04222575202584267,0.3581802546977997,-0.1363743543624878
1774158613499433500,16.09343359375,-0.023146064952015877,0.5955805778503418,-0.26203641295433044
1774158613519427600,16.113427490234375,0.0954173356294632,1.0123766660690308,-0.4607766568660736
1774158613539421400,16.13342138671875,0.06404263526201248,1.1564215421676636,-0.49645930528640747
1774158613559415600,16.15341552734375,-0.04958353191614151,0.556644082069397,-0.2243042141199112
1774158613579409400,16.173409423828126,0.10956404358148575,0.6088274121284485,-0.23674915730953217
1774158613599403300,16.1934033203125,0.02672295644879341,0.3828917145729065,-0.14768186211585999
1774158613619396400,16.213396240234374,-0.26781412959098816,0.009701362811028957,0.016030099242925644
1774158613639390500,16.233390380859376,-0.4861297011375427,0.3740231394767761,-0.129729762673378
1774158613659384600,16.253384521484374,-0.456336110830307,0.2545697093009949,0.05223071202635765
1774158613679378400,16.27337841796875,-0.23809325695037842,-0.20992739498615265,0.05342381075024605
1774158613699372500,16.29337255859375,-0.10632430762052536,-0.3558821976184845,0.11414787918329239
1774158613719365400,16.313365478515625,-0.028079571202397346,-0.45275095105171204,0.1461995542049408
1774158613739359500,16.333359375,-0.011292335577309132,-0.5290177464485168,0.09261622279882431
1774158613759353300,16.353353271484377,-0.049612559378147125,-0.6164309978485107,0.04368383064866066
1774158613779347500,16.373347412109375,-0.10793285816907883,-0.45533183217048645,-0.007500526960939169
1774158613799341600,16.393341552734373,-0.02147812768816948,-0.10823379456996918,-0.17193980515003204
1774158613819335400,16.41333544921875,0.18602819740772247,0.023545006290078163,-0.2855268120765686
1774158613839328500,16.43332861328125,0.3597792088985443,0.15630465745925903,-0.37670040130615234
1774158613859322600,16.453322509765623,0.5225375294685364,0.12031682580709457,-0.5023438334465027
1774158613879316500,16.47331640625,0.5755354762077332,0.31815293431282043,-0.5331568717956543
1774158613899310600,16.493310546875,0.4658430516719818,0.4848915934562683,-0.4069075882434845
1774158613919304400,16.513304443359374,0.3894399106502533,0.5425796508789062,-0.18473495543003082
1774158613939297500,16.533297607421876,0.48961737751960754,0.36105167865753174,-0.061234861612319946
1774158613959291400,16.55329150390625,0.15780960023403168,0.3202568292617798,-0.026925889775156975
1774158613979285500,16.573285400390624,0.057851847261190414,0.13146854937076569,0.06127320975065231
1774158613999279600,16.593279541015626,-0.0026144252624362707,-0.13877493143081665,0.23070111870765686
1774158614019273500,16.6132734375,0.07795391976833344,-0.4985293745994568,0.3507116734981537
1774158614039267600,16.633267578125,0.22319819033145905,-0.7006963491439819,0.2596321105957031
1774158614059260400,16.653260498046876,0.2624153792858124,-0.5550440549850464,0.16621772944927216
1774158614079254300,16.673254150390626,0.18453681468963623,-0.16632799804210663,0.08042799681425095
1774158614099248400,16.693248291015625,0.14250095188617706,0.10244541615247726,0.11875967681407928
1774158614119242500,16.713242431640627,0.1709882616996765,0.2204386293888092,0.14522643387317657
1774158614139236400,16.733236328125,0.137966126203537,0.2980490028858185,0.09213551878929138
1774158614159229400,16.7532294921875,0.13929663598537445,0.1461620032787323,0.0805896520614624
1774158614179223600,16.7732236328125,0.18095700442790985,0.1768386960029602,0.1860439032316208
1774158614199217700,16.7932177734375,0.0687822625041008,0.39922967553138733,0.08026926964521408
1774158614219211500,16.81321142578125,0.07408248633146286,0.410234659910202,-0.20798036456108093
1774158614239205400,16.833205322265623,0.020485833287239075,0.47056299448013306,-0.2633970081806183
1774158614259198500,16.853198486328125,-0.007656321860849857,0.5403639078140259,-0.3674296736717224
1774158614279192300,16.8731923828125,-0.0008695221040397882,0.6129220128059387,-0.6860529184341431
1774158614299186700,16.893186767578126,0.07128296792507172,0.30822867155075073,-0.5580153465270996
1774158614319180800,16.913180908203124,0.1721547245979309,0.6356076002120972,-0.2803232669830322
1774158614339174700,16.933174560546874,0.2354082614183426,0.9379386901855469,-0.29385611414909363
1774158614359168800,16.953168701171876,0.2562142014503479,0.7491376399993896,-0.3970365822315216
1774158614379161900,16.973161865234374,0.24143871665000916,0.01465590763837099,-0.4431939423084259
1774158614399155700,16.99315576171875,0.23824532330036163,-0.6294500827789307,-0.27859994769096375
1774158614419149600,17.013149658203126,0.3954991400241852,-1.10208261013031,0.2473679780960083
1774158614439143700,17.033143798828124,0.7137106657028198,0.02413862571120262,-0.6526291966438293
1774158614459137800,17.0531376953125,0.6336946487426758,0.12588736414909363,-1.0568616390228271
1774158614479130600,17.073130615234376,0.350534051656723,0.7095484137535095,-0.6741387248039246
1774158614499124700,17.093124755859375,-0.012850817292928696,0.8241466283798218,-0.07417356222867966
1774158614519118800,17.113118896484377,-0.19418704509735107,0.5028373003005981,0.38339054584503174
1774158614539112700,17.13311279296875,-0.2662375569343567,0.6291518211364746,0.41082748770713806
1774158614559106800,17.15310693359375,-0.22973652184009552,0.6158077716827393,0.32595813274383545
1774158614579100700,17.1731005859375,0.04456879943609238,0.31458163261413574,0.28366419672966003
1774158614599093800,17.19309375,-0.060755226761102676,0.17688874900341034,0.12431875616312027
1774158614619087600,17.213087646484375,-0.1667516976594925,-0.331776887178421,0.23435071110725403
1774158614639081700,17.233081787109374,-0.2708442807197571,-0.6128841638565063,0.49168211221694946
1774158614659075800,17.253075927734375,-0.08052999526262283,-0.26101481914520264,0.6197178363800049
1774158614679069700,17.273069580078126,-0.20755958557128906,0.32940879464149475,0.41252365708351135
1774158614699062800,17.293062744140624,-0.4012640714645386,0.3833540380001068,0.31144922971725464
1774158614719056600,17.313056640625,-0.4760304391384125,0.24804255366325378,0.2858525216579437
1774158614739050800,17.33305078125,-0.4473892152309418,0.20700351893901825,0.29266035556793213
1774158614759044600,17.353044677734374,-0.3337121903896332,-0.053767889738082886,0.23273524641990662
1774158614779038700,17.373038818359376,-0.2787264287471771,-0.2494918555021286,0.23806795477867126
1774158614799031800,17.39303173828125,-0.21172450482845306,-0.2522687315940857,0.3116670846939087
1774158614819025700,17.413025634765624,-0.21155565977096558,-0.06818225234746933,0.2726171314716339
1774158614839019800,17.433019775390626,-0.20750606060028076,0.3442356586456299,-0.012673983350396156
1774158614859014000,17.453013916015625,-0.17539098858833313,0.3730529248714447,-0.2623940706253052
1774158614879007700,17.4730078125,-0.0956258550286293,0.01948448456823826,-0.22192281484603882
1774158614899001900,17.493001953125,-0.04005340859293938,-0.1873035728931427,0.009669938124716282
1774158614918994700,17.51299462890625,-0.006733536254614592,-0.05831070989370346,-0.23799525201320648
1774158614938988800,17.53298876953125,-0.046970169991254807,-1.0767719745635986,0.08337824791669846
1774158614958982700,17.552982666015627,-0.049191780388355255,-1.0200588703155518,0.2069593071937561
1774158614978976800,17.572976806640625,0.25457262992858887,-0.7840591073036194,-0.11126314103603363
1774158614998970600,17.592970703125,0.38566142320632935,-0.3231961727142334,-0.4837970435619354
1774158615018963700,17.612963623046873,0.46419191360473633,-0.24190238118171692,-0.42256882786750793
1774158615038957800,17.632957763671875,0.558437705039978,0.135071262717247,-0.45054319500923157
1774158615058951700,17.65295166015625,0.3136894702911377,0.2711348235607147,-0.4523181915283203
1774158615078945500,17.672945556640624,-0.018494589254260063,0.17190571129322052,-0.4600682556629181
1774158615098939600,17.692939697265626,0.022230470553040504,-0.670357882976532,-0.13642175495624542
1774158615118932700,17.7129326171875,-0.07302574068307877,-0.8639382123947144,0.009440906345844269
1774158615138926800,17.7329267578125,0.2257676124572754,-0.5696259140968323,-0.040042757987976074
1774158615158920700,17.752920654296876,-0.05330849438905716,0.08366666734218597,0.0266537144780159
1774158615178914800,17.772914794921874,-0.19587576389312744,1.1094290018081665,0.4040505290031433
1774158615198909000,17.792908935546876,-0.14780277013778687,2.254138708114624,0.46682098507881165
1774158615218901800,17.81290185546875,-0.07972092926502228,-0.11517772078514099,0.4019104242324829
1774158615238895600,17.8328955078125,0.06448817998170853,-1.6999309062957764,-0.09407909214496613
1774158615258889700,17.8528896484375,0.274588942527771,0.9453084468841553,-0.0005803027888759971
1774158615278883600,17.872883544921876,0.3638317584991455,0.7056506276130676,0.10814191401004791
1774158615298878000,17.8928779296875,0.38690564036369324,-1.0872802734375,0.7733630537986755
1774158615318872000,17.9128720703125,0.3730897009372711,-0.42069581151008606,0.8212125897407532
1774158615338865200,17.932865234375,0.09994257241487503,0.4688844084739685,0.32103100419044495
1774158615358859000,17.95285888671875,-0.02412104792892933,0.7766595482826233,-0.12854120135307312
1774158615378853000,17.97285302734375,-0.02732882648706436,0.6641516089439392,-0.5479635000228882
1774158615398847000,17.992846923828125,0.0022208099253475666,0.7256062030792236,-0.6147838234901428
1774158615418841000,18.012841064453124,-0.018219750374555588,0.2600025534629822,-0.13980716466903687
1774158615438834000,18.032833984375,-0.0875849723815918,-0.36067909002304077,0.2685379683971405
1774158615458828000,18.052828125,-0.0017989652696996927,0.15057991445064545,-0.08291219174861908
1774158615478822000,18.07282177734375,0.15140816569328308,0.04048537462949753,-0.3452133238315582
1774158615498816000,18.09281591796875,0.08450902253389359,0.24791419506072998,-0.07991693913936615
1774158615518810000,18.11281005859375,0.06333449482917786,0.338318407535553,-0.14232784509658813
1774158615538803200,18.13280322265625,0.07837549597024918,-0.26050853729248047,-0.39019304513931274
1774158615558797000,18.152797119140626,0.10873553156852722,-0.6031622886657715,-0.5450105667114258
1774158615578791000,18.172791015625,0.324237197637558,-0.15502554178237915,-0.562838077545166
1774158615598785000,18.192784912109374,0.5327536463737488,0.0990339070558548,-0.5507568717002869
1774158615618779000,18.21277880859375,0.46179187297821045,0.29593950510025024,-0.3584021031856537
1774158615638773000,18.23277294921875,0.14036163687705994,0.16944734752178192,-0.08021894097328186
1774158615658766000,18.25276611328125,-0.10982529819011688,-0.057676877826452255,0.06191449984908104
1774158615678760000,18.272760009765626,-0.16373273730278015,-0.025476330891251564,0.05914614349603653
1774158615698754000,18.292754150390625,-0.0705692395567894,0.4732767343521118,0.23886451125144958
1774158615718748200,18.312748046875,-0.02315938100218773,0.7265270948410034,0.3593757450580597
1774158615738742000,18.332741943359373,0.15170244872570038,0.986043393611908,0.1885954737663269
1774158615758734800,18.35273486328125,0.29732248187065125,0.746202826499939,0.050026148557662964
1774158615778729000,18.37272900390625,0.3363734781742096,0.6393437385559082,0.12161245197057724
1774158615798723000,18.39272314453125,-0.029767217114567757,0.6476168632507324,0.20029501616954803
1774158615818717000,18.412717041015625,-0.278847873210907,0.3572081923484802,0.14914527535438538
1774158615838711000,18.4327109375,-0.2952697277069092,0.4395430088043213,0.10506037622690201
1774158615858704100,18.4527041015625,-0.22483764588832855,0.41653570532798767,0.1527722328901291
1774158615878698000,18.472697998046876,-0.16149941086769104,0.587425947189331,0.18934063613414764
1774158615898692000,18.492692138671874,-0.15107659995555878,0.6151068210601807,0.09957879036664963
1774158615918686000,18.51268603515625,-0.18478210270404816,0.5716565847396851,0.0739583820104599
1774158615938679800,18.5326796875,-0.32243451476097107,0.46767371892929077,0.07982505857944489
1774158615958673000,18.5526728515625,-0.42283007502555847,0.11835167557001114,0.22272229194641113
1774158615978667000,18.5726669921875,-0.4060998260974884,0.2479831725358963,0.25272679328918457
1774158615998661000,18.5926611328125,-0.32191091775894165,-0.018457571044564247,0.28813591599464417
1774158616018655000,18.612655029296874,-0.07909747958183289,-0.5151687860488892,0.5469528436660767
1774158616038649000,18.632649169921876,-0.053887467831373215,-0.23153282701969147,0.5215409398078918
1774158616058642000,18.652641845703126,-0.12816782295703888,0.13243474066257477,0.1671687513589859
1774158616078636000,18.672635986328125,0.06466448307037354,0.06257150322198868,-0.06942674517631531
1774158616098630000,18.6926298828125,0.09266655147075653,-0.11719586700201035,-0.1311950385570526
1774158616118624000,18.7126240234375,0.24734455347061157,-0.44882839918136597,-0.12342420220375061
1774158616138618000,18.7326181640625,0.32506224513053894,-0.8187074065208435,-0.1482432633638382
1774158616158611000,18.75261083984375,0.4899404048919678,-0.5608723759651184,-0.1622629463672638
1774158616178605000,18.77260498046875,0.8935890793800354,-0.5236573815345764,-0.18113836646080017
1774158616198599200,18.79259912109375,1.1731547117233276,-0.45375150442123413,-0.16857463121414185
1774158616218593000,18.812593017578124,1.1458817720413208,0.0760287195444107,-0.0177566260099411
1774158616238587000,18.8325869140625,0.9300245642662048,0.6889949440956116,0.028063857927918434
1774158616258580000,18.852580078125,0.7464374303817749,0.6001555919647217,-0.027029220014810562
1774158616278574000,18.872573974609374,0.5359219908714294,0.26916515827178955,-0.04515229910612106
1774158616298568200,18.892568115234376,0.3311140239238739,0.1590394526720047,0.01588043011724949
1774158616318562300,18.912562255859374,0.36878228187561035,-0.08533594012260437,-0.00004820321555598639
1774158616338556400,18.932556396484376,0.3258260488510132,-0.2283487468957901,-0.049190182238817215
1774158616358549200,18.95254931640625,0.26765328645706177,-0.6661465764045715,-0.06534465402364731
1774158616378543400,18.97254345703125,0.36230096220970154,-1.1440505981445312,-0.10487820953130722
1774158616398537500,18.992537353515626,0.4411803185939789,-0.9564082622528076,-0.04330859333276749
1774158616418531300,19.01253125,0.41873013973236084,-0.714674711227417,-0.016116386279463768
1774158616438525400,19.032525390625,0.31699338555336,-0.3118412494659424,0.041122402995824814
1774158616458519600,19.05251953125,0.24969957768917084,-0.06215418502688408,0.03218217194080353
1774158616478512400,19.072512451171875,0.21642950177192688,0.04706018790602684,-0.03145645931363106
1774158616498506200,19.09250634765625,0.08687098324298859,0.031749941408634186,-0.06517340987920761
1774158616518500400,19.112500244140627,-0.011545069515705109,-0.06636251509189606,-0.029223399236798286
1774158616538494500,19.132494384765625,-0.04314161092042923,-0.1403414011001587,-0.037281058728694916
1774158616558488300,19.15248828125,-0.0965459793806076,-0.3471318483352661,0.030418358743190765
1774158616578481400,19.1724814453125,-0.18880321085453033,-0.570472002029419,0.24122966825962067
1774158616598475500,19.1924755859375,-0.28157976269721985,-0.6815623044967651,0.38418814539909363
1774158616618469000,19.21246923828125,-0.27190396189689636,-0.5929847955703735,0.35813045501708984
1774158616638463200,19.232463134765624,-0.1549357920885086,-0.5038437247276306,0.19531303644180298
1774158616658457300,19.252457275390626,-0.055387359112501144,-0.34217625856399536,0.09381730854511261
1774158616678450400,19.272450439453124,-0.11125914752483368,-0.19232043623924255,0.09343753755092621
1774158616698444300,19.2924443359375,-0.224245086312294,-0.12807834148406982,0.05800178274512291
1774158616718438400,19.3124384765625,-0.24758422374725342,-0.4938986599445343,-0.16933096945285797
1774158616738432500,19.3324326171875,-0.04159591346979141,-0.9545248746871948,-0.4704223573207855
1774158616758426400,19.35242626953125,0.26788339018821716,-0.8764052987098694,-0.5355057716369629
1774158616778419200,19.372419189453126,0.5420888066291809,-1.0200769901275635,-0.3332522511482239
1774158616798413300,19.392413330078124,0.507107675075531,-0.9686127305030823,-0.25158536434173584
1774158616818407400,19.412407470703126,0.43055832386016846,-0.36305302381515503,-0.4865797758102417
1774158616838401300,19.4324013671875,0.21733339130878448,0.34813934564590454,-0.5737344026565552
1774158616858395400,19.4523955078125,-0.03196458891034126,0.6212350726127625,-0.43688732385635376
1774158616878388500,19.472388427734376,-0.1561451256275177,0.5381532311439514,-0.08665526658296585
1774158616898382300,19.49238232421875,-0.3376336991786957,0.36605656147003174,0.20301996171474457
1774158616918376400,19.51237646484375,-0.3094870150089264,-0.3451715111732483,0.5045382380485535
1774158616938370300,19.532370361328127,-0.35472372174263,-0.7101308107376099,0.6547613143920898
1774158616958364200,19.5523642578125,-0.22632288932800293,-0.13057105243206024,0.2643269896507263
1774158616978357200,19.572357177734375,-0.2296246737241745,0.04234905540943146,0.07842317223548889
1774158616998351400,19.592351318359373,-0.3101285696029663,-0.03647198900580406,0.1894567459821701
1774158617018345500,19.612345458984375,-0.4014073610305786,-0.17729514837265015,0.35486888885498047
1774158617038339300,19.63233935546875,-0.5230379104614258,-0.3149896264076233,0.41344696283340454
1774158617058333400,19.65233349609375,-0.6196539402008057,-0.26643940806388855,0.4473966658115387
1774158617078326500,19.672326416015625,-0.6587606072425842,-0.056714676320552826,0.4332752525806427
1774158617098320100,19.692320068359376,-0.5888251662254333,0.037513554096221924,0.4092167913913727
1774158617118314200,19.712314208984374,-0.4601595997810364,0.05811230465769768,0.42074111104011536
1774158617138308400,19.732308349609376,-0.3808290958404541,-0.003469566348940134,0.4137524366378784
1774158617158302200,19.75230224609375,-0.309887558221817,-0.009608951397240162,0.33256995677948
1774158617178295300,19.77229541015625,-0.28324928879737854,0.09703414142131805,0.20769301056861877
1774158617198289400,19.792289306640626,-0.30536070466041565,0.04090828448534012,0.1509985625743866
1774158617218283500,19.812283447265624,-0.30783772468566895,0.25679558515548706,-0.046074818819761276
1774158617238277400,19.83227734375,-0.1997693032026291,0.3144495487213135,0.005615541245788336
1774158617258271500,19.852271484375,-0.1765366792678833,0.0739184319972992,0.015024489723145962
1774158617278264300,19.872264404296875,-0.16116438806056976,-0.03833753615617752,0.01818006858229637
1774158617298258200,19.892258056640625,-0.14895112812519073,-0.07060439139604568,0.018554242327809334
1774158617318252000,19.912251953125,-0.06564692407846451,-0.18084940314292908,0.014329404570162296
1774158617338246100,19.93224609375,0.05992911383509636,-0.24896188080310822,-0.19982363283634186
1774158617358240000,19.952239990234375,0.21444837749004364,-0.47855353355407715,-0.37914758920669556
1774158617378233000,19.972233154296877,0.38852164149284363,-0.48143187165260315,-0.4416852593421936
1774158617398227200,19.992227294921875,0.45123055577278137,-0.49581214785575867,-0.4976617097854614
1774158617418221000,20.012220947265625,0.41525205969810486,-0.24581216275691986,-0.29206061363220215
1774158617438215000,20.03221484375,0.33295106887817383,-0.10032100975513458,0.029329659417271614
1774158617458209000,20.052208984375,0.20352382957935333,-0.09568684548139572,0.18085260689258575
1774158617478202000,20.0722021484375,0.0012980246683582664,-0.22418943047523499,0.289978563785553
1774158617498196200,20.0921962890625,-0.1317114233970642,-0.19622810184955597,0.2089385688304901
1774158617518190000,20.112190185546876,-0.16104933619499207,-0.33432871103286743,0.20874682068824768
1774158617538184200,20.13218408203125,-0.1597350686788559,-0.6295864582061768,0.3703881800174713
1774158617558177000,20.152177001953124,-0.02828037366271019,-0.643531858921051,0.38844361901283264
1774158617578171100,20.172171142578126,0.13056440651416779,-0.41763079166412354,0.23244735598564148
1774158617598165000,20.1921650390625,0.212384432554245,-0.180947944521904,0.19860683381557465
1774158617618159000,20.2121591796875,0.22821958363056183,0.04589212313294411,0.17731113731861115
1774158617638153000,20.232153076171876,0.18645189702510834,0.11696656793355942,0.16018833220005035
1774158617658147000,20.25214697265625,0.147959366440773,0.22161521017551422,0.1612972766160965
1774158617678140200,20.27214013671875,0.07134289294481277,0.26417970657348633,0.1942347288131714
1774158617698134300,20.29213427734375,0.004774248693138361,0.2882158160209656,0.2285679280757904
1774158617718128000,20.312128173828125,-0.08128340542316437,0.36335131525993347,0.23022255301475525
1774158617738122000,20.3321220703125,-0.15403591096401215,0.2913239896297455,0.2514823079109192
1774158617758116000,20.3521162109375,-0.22350925207138062,0.2971605658531189,0.20507724583148956
1774158617778109200,20.372109130859375,-0.20597073435783386,0.3278939723968506,0.1579779088497162
1774158617798103000,20.39210302734375,-0.13637222349643707,0.49637994170188904,0.03587730601429939
1774158617818097200,20.41209716796875,-0.08393191546201706,0.4416077733039856,-0.009672334417700768
1774158617838091000,20.432091064453125,-0.03141145035624504,0.3082957863807678,-0.03586798533797264
1774158617858084000,20.452083984375,-0.02702682465314865,0.11182107031345367,0.01948821358382702
1774158617878078000,20.472077880859374,-0.028716599568724632,-0.12108807265758514,0.050030943006277084
1774158617898072000,20.492072021484375,0.05359984561800957,-0.4028979241847992,-0.010882741771638393
1774158617918066000,20.51206591796875,0.2816881537437439,-0.6909675002098083,-0.32501643896102905
1774158617938060000,20.53206005859375,0.6931201815605164,-0.6537988781929016,-0.6332200765609741
1774158617958053000,20.55205322265625,0.8594470620155334,-0.29170534014701843,-0.2689366638660431
1774158617978047200,20.572047119140624,0.6075493097305298,0.026676617562770844,-0.19667205214500427
1774158617998041000,20.592041015625,0.30279847979545593,0.19826115667819977,-0.1862817257642746
1774158618018035200,20.61203515625,-0.06830448657274246,0.2971635162830353,-0.19935278594493866
1774158618038029300,20.632029296875,-0.2609919011592865,0.441315621137619,-0.12137383222579956
1774158618058022100,20.652022216796876,-0.3676701486110687,0.5507078766822815,0.092809297144413
1774158618078016000,20.67201611328125,-0.4155183732509613,0.9549328684806824,-0.00267674308270216
1774158618098010000,20.692010009765625,-0.33725738525390625,1.2681869268417358,-0.010422280989587307
1774158618118004000,20.71200390625,-0.2835773825645447,1.1156562566757202,-0.0004689826746471226
1774158618137998000,20.731998046875,-0.28275367617607117,0.6985048055648804,-0.0299680195748806
1774158618157991200,20.7519912109375,-0.29841333627700806,0.48987624049186707,-0.014741395600140095
1774158618177985300,20.7719853515625,-0.32855817675590515,0.3208938539028168,0.06256457418203354
1774158618197979100,20.791979248046875,-0.33928805589675903,0.46808651089668274,0.01781521551311016
1774158618217973000,20.811972900390625,-0.4024140238761902,0.5141709446907043,0.023313311859965324
1774158618237967000,20.831967041015623,-0.46870917081832886,0.5822604894638062,-0.006918093655258417
1774158618257960200,20.851960205078125,-0.503211498260498,0.5139123201370239,0.07582338899374008
1774158618277954000,20.8719541015625,-0.484507292509079,0.41650694608688354,0.08687098324298859
1774158618297948000,20.891947998046874,-0.4138645529747009,0.26724982261657715,0.11704752594232559
1774158618317942000,20.91194189453125,-0.2993515431880951,0.16674184799194336,0.1468765288591385
1774158618337936000,20.931935791015626,-0.17966589331626892,0.08148527145385742,0.1086050420999527
1774158618357928700,20.9519287109375,-0.17934179306030273,0.2211017608642578,-0.15790493786334991
1774158618377922800,20.9719228515625,-0.1194760650396347,-0.16000671684741974,0.15730413794517517
1774158618397916700,20.991916748046876,-0.04494377225637436,-0.14023646712303162,0.014328605495393276
1774158618417910800,21.011910888671874,0.026130404323339462,-0.07005791366100311,-0.06215178593993187
1774158618437905000,21.03190478515625,-0.0019140138756483793,-0.10778585076332092,-0.09736756235361099
1774158618457898000,21.05189794921875,-0.06198906898498535,-0.4295564293861389,-0.026140790432691574
1774158618477891800,21.071891845703124,0.0371905118227005,-0.20610816776752472,-0.16784518957138062
1774158618497886000,21.091885986328126,0.17627303302288055,-0.2957778573036194,-0.11998925358057022
1774158618517880000,21.111880126953125,0.30341020226478577,-0.4129686653614044,-0.3217199742794037
1774158618537873000,21.131872802734375,0.36166074872016907,-0.341795414686203,-0.5365129709243774
1774158618557866800,21.15186669921875,0.3230513036251068,0.032050877809524536,-0.39525464177131653
1774158618577860900,21.17186083984375,0.2163730412721634,0.2788313627243042,-0.21090717613697052
1774158618597855000,21.19185498046875,0.061290521174669266,0.5362911224365234,-0.12640480697155
1774158618617848800,21.211848876953123,0.030289994552731514,0.15103664994239807,0.09159249812364578
1774158618637842000,21.231842041015625,-0.0015757924411445856,-0.05441104248166084,-0.04201802238821983
1774158618657836000,21.2518359375,0.057498712092638016,-0.1597537100315094,-0.02111061103641987
1774158618677829600,21.27182958984375,0.13327284157276154,-0.19928061962127686,0.009441172704100609
1774158618697823700,21.29182373046875,0.17600245773792267,-0.1556234210729599,0.010823619551956654
1774158618717817900,21.31181787109375,0.29440075159072876,-0.06962035596370697,-0.048235174268484116
1774158618737811000,21.33181103515625,0.32377541065216064,-0.017831994220614433,-0.03959161788225174
1774158618757804800,21.3518046875,0.2964321970939636,0.09741736948490143,-0.0018378474051132798
1774158618777799000,21.371798828125,0.2726544439792633,0.21209467947483063,0.04992548003792763
1774158618797793000,21.39179296875,0.20803815126419067,0.24980264902114868,0.09646794945001602
1774158618817787000,21.411786865234376,0.09996228665113449,0.18510779738426208,0.12199221551418304
1774158618837779700,21.43177978515625,0.014333132654428482,0.19245199859142303,0.14723312854766846
1774158618857773800,21.45177392578125,-0.01540638692677021,0.28390228748321533,0.1879936009645462
1774158618877767700,21.471767578125,-0.04637548699975014,0.39766666293144226,0.17673136293888092
1774158618897761800,21.49176171875,-0.06112300977110863,0.4677560031414032,0.10577383637428284
1774158618917756000,21.511755859375,-0.01293444074690342,0.4566687345504761,0.09237626940011978
1774158618937749000,21.5317490234375,0.015419702976942062,0.45457229018211365,0.0448971688747406
1774158618957742800,21.551742919921875,0.04381858557462692,0.4627665877342224,0.0033454629592597485
1774158618977737000,21.571737060546877,0.058338671922683716,0.3912274241447449,0.022939404472708702
1774158618997730800,21.591730712890627,0.044810082763433456,0.2849433124065399,0.08567389100790024
1774158619017724000,21.611723876953125,0.04880988225340843,0.24925589561462402,0.115774005651474
1774158619037717800,21.6317177734375,0.04309607297182083,0.00881186779588461,0.10556424409151077
1774158619057711900,21.6517119140625,0.017674067988991737,-0.3162791430950165,-0.04664606600999832
1774158619077706000,21.6717060546875,0.13167306780815125,-0.36951813101768494,-0.49086612462997437
1774158619097699800,21.691699951171874,0.41405150294303894,-0.028790103271603584,-0.7371193170547485
1774158619117693000,21.71169287109375,0.5960972309112549,-0.09476006776094437,-0.5527582764625549
1774158619137686800,21.731686767578125,0.553960382938385,-0.35531947016716003,-0.32192105054855347
1774158619157680600,21.7516806640625,0.30249860882759094,-0.45476990938186646,-0.22119390964508057
1774158619177674800,21.7716748046875,0.011575429700314999,-0.2267969250679016,-0.21847161650657654
1774158619197668900,21.7916689453125,-0.2585870921611786,0.4298238158226013,-0.1517927199602127
1774158619217662000,21.811661865234374,-0.4346638321876526,0.8656232357025146,-0.010904313065111637
1774158619237655800,21.83165576171875,-0.40511712431907654,1.133151888847351,0.12315522134304047
1774158619257650000,21.85164990234375,-0.306268572807312,1.1345680952072144,0.21558289229869843
1774158619277644000,21.87164404296875,-0.23984241485595703,0.8156812191009521,0.2634763717651367
1774158619297638100,21.89163818359375,-0.21362626552581787,0.429810494184494,0.27793627977371216
1774158619317631200,21.91163134765625,-0.23675954341888428,0.3726569414138794,0.2821651101112366
1774158619337625000,21.931625,-0.29810360074043274,0.3885085880756378,0.3024842441082001
1774158619357619000,21.951618896484376,-0.36048761010169983,0.4900623857975006,0.3187132775783539
1774158619377613000,21.971613037109375,-0.38951048254966736,0.4091499447822571,0.314746230840683
1774158619397607200,21.991607177734377,-0.38902977108955383,0.294798880815506,0.2632438838481903
1774158619417600300,22.011600341796875,-0.37342604994773865,0.2068791389465332,0.15898725390434265
1774158619437594000,22.031593994140625,-0.34049367904663086,0.1861267238855362,0.115204356610775
1774158619457588200,22.051588134765623,-0.284673273563385,0.12963709235191345,0.16580255329608917
1774158619477582300,22.071582275390625,-0.24251116812229156,0.04021826013922691,0.20691004395484924
1774158619497576200,22.091576171875,-0.16537004709243774,0.062423162162303925,0.14137710630893707
1774158619517569000,22.111569091796873,-0.08173561096191406,0.056231848895549774,0.029033249244093895
1774158619537563100,22.131563232421875,-0.04519437626004219,-0.01107528805732727,-0.06732231378555298
1774158619557557000,22.151556884765625,-0.04288754612207413,0.12030696868896484,-0.11889975517988205
1774158619577551000,22.171551025390624,-0.04441327229142189,0.02305391989648342,-0.10712885111570358
1774158619597544200,22.191544189453126,-0.05669630318880081,-0.014128335751593113,-0.12180446833372116
1774158619617538300,22.211538330078124,-0.04625511169433594,0.04007125273346901,-0.11777403950691223
1774158619637532200,22.2315322265625,0.018554775044322014,0.02345898747444153,-0.14523522555828094
1774158619657526300,22.2515263671875,0.2310420125722885,-0.1766384243965149,-0.33032917976379395
1774158619677520100,22.27152001953125,0.43674084544181824,-0.3547511696815491,-0.5175387263298035
1774158619697513200,22.29151318359375,0.48010241985321045,-0.13524357974529266,-0.6161454916000366
1774158619717507000,22.311507080078126,0.43200039863586426,-0.20608100295066833,-0.6327401995658875
1774158619737501200,22.331501220703124,0.2937469184398651,-0.0803169459104538,-0.4486885666847229
1774158619757495000,22.3514951171875,0.19665341079235077,-0.12019804865121841,-0.1850326955318451
1774158619777489200,22.3714892578125,0.1174459382891655,-0.3210667073726654,0.1283196210861206
1774158619797482200,22.391482177734375,0.01727565936744213,-0.3951595723628998,0.3424212634563446
1774158619817476000,22.41147607421875,-0.043961066752672195,-0.4155431389808655,0.35463425517082214
1774158619837470000,22.431469970703127,0.05873894691467285,-0.3666413724422455,0.1890183836221695
1774158619857464000,22.451464111328125,0.007956193760037422,-0.2920680642127991,0.1058979332447052
1774158619877458200,22.471458251953123,0.00021518341964110732,-0.36573243141174316,0.1308821141719818
1774158619897451300,22.491451171875,0.03695482015609741,-0.3345087468624115,0.14651434123516083
1774158619917445000,22.511445068359375,0.09541360288858414,-0.2815035879611969,0.1761891394853592
1774158619937439200,22.531439208984374,0.13244938850402832,-0.2184617668390274,0.2348354160785675
1774158619957433300,22.551433349609376,0.15958327054977417,-0.21149574220180511,0.272275447845459
1774158619977427200,22.57142724609375,0.19674554467201233,-0.17532815039157867,0.255791038274765
1774158619997420000,22.591419921875,0.1951172947883606,-0.1944432556629181,0.2347312867641449
1774158620017414100,22.6114140625,0.11633859574794769,-0.2051994949579239,0.27284643054008484
1774158620037408000,22.631407958984376,0.08079711347818375,-0.1681775599718094,0.3044387102127075
1774158620057402000,22.651402099609374,0.04872945696115494,-0.2631605267524719,0.28338509798049927
1774158620077395200,22.671395263671876,-0.022941801697015762,-0.09383860975503922,0.28757959604263306
1774158620097389300,22.691389404296874,-0.02726917155086994,0.028545359149575233,0.23632119596004486
1774158620117383200,22.711383056640624,-0.012004464864730835,-0.06914445012807846,0.12948955595493317
1774158620137377000,22.731376953125,-0.011465441435575485,-0.18790945410728455,0.0649571642279625
1774158620157371100,22.75137109375,0.006311958190053701,-0.26890629529953003,0.06677316874265671
1774158620177364200,22.7713642578125,0.07854194939136505,-0.2979946732521057,0.12897981703281403
1774158620197358000,22.791358154296876,0.12832175195217133,-0.5770598649978638,0.14480805397033691
1774158620217352200,22.811352294921875,0.14682433009147644,-0.8830323219299316,-0.0327313132584095
1774158620237346000,22.831345947265625,0.3633992373943329,-1.4047421216964722,-0.4377048909664154
1774158620257340200,22.851340087890627,0.6705823540687561,-1.5992255210876465,-0.6659937500953674
1774158620277333000,22.8713330078125,0.790070652961731,-1.4577996730804443,-0.5792676210403442
1774158620297327000,22.8913271484375,0.6581968069076538,-1.2183383703231812,-0.42156320810317993
1774158620317321000,22.911321044921873,0.4219544231891632,-0.7786004543304443,-0.5927541255950928
1774158620337315000,22.931315185546875,0.10285420715808868,-0.47865206003189087,-0.5858994126319885
1774158620357309200,22.95130908203125,-0.21388059854507446,-0.2500721514225006,-0.30591943860054016
1774158620377302300,22.97130224609375,-0.41654980182647705,-0.180070161819458,0.11545229703187943
1774158620397296000,22.991296142578125,-0.4526039659976959,-0.2369270622730255,0.36617398262023926
1774158620417290200,23.011290283203124,-0.3920450210571289,-0.2966039776802063,0.30157822370529175
1774158620437284400,23.031284423828126,-0.31843337416648865,-0.038170021027326584,-0.09629511088132858
1774158620457278200,23.0512783203125,-0.3597770929336548,0.42435020208358765,-0.05589628964662552
1774158620477271000,23.07127099609375,-0.3578327000141144,0.19098806381225586,0.16295376420021057
1774158620497265200,23.09126513671875,-0.41099128127098083,0.10068586468696594,0.24471867084503174
1774158620517259000,23.111259033203126,-0.4903167188167572,0.2610529065132141,0.18456211686134338
1774158620537253000,23.131253173828124,-0.5453445315361023,0.35313037037849426,0.12461676448583603
1774158620557247200,23.151247314453126,-0.5591219067573547,0.21816934645175934,0.2110065072774887
1774158620577240300,23.171240234375,-0.5752022862434387,0.02539563737809658,0.2948811650276184
1774158620597234200,23.191234130859375,-0.32902637124061584,0.23305349051952362,0.21437513828277588
1774158620617228000,23.21122802734375,-0.19261018931865692,-0.11095767468214035,0.1648976057767868
1774158620637222100,23.23122216796875,-0.20046944916248322,-0.11442004889249802,0.1547517627477646
1774158620657215200,23.25121533203125,-0.2544754147529602,-0.05998317524790764,0.13058464229106903
1774158620677209000,23.271208984375,-0.35103684663772583,-0.10886150598526001,0.19814211130142212
1774158620697203200,23.291203125,-0.34679123759269714,-0.14687520265579224,0.281086802482605
1774158620717197000,23.311197021484375,-0.1982284039258957,-0.19263549149036407,0.18874461948871613
1774158620737191200,23.331191162109373,-0.09970076382160187,-0.4109020531177521,0.18592485785484314
1774158620757184000,23.35118408203125,0.03652019426226616,-0.22744354605674744,0.13856559991836548
1774158620777178000,23.37117822265625,0.032763805240392685,-0.2794604003429413,0.28672656416893005
1774158620797172000,23.391171875,-0.15030987560749054,0.1530073881149292,-0.06102074310183525
1774158620817166000,23.411166015625,-0.043411657214164734,0.6222752928733826,-0.08390635251998901
1774158620837160200,23.43116015625,0.2206229269504547,-0.010218283161520958,-0.006960703991353512
1774158620857153300,23.4511533203125,0.36604562401771545,-0.19873493909835815,-0.19167836010456085
1774158620877147100,23.471147216796876,0.5197252035140991,-0.0007472829893231392,-0.2946641147136688
1774158620897141200,23.491141357421874,0.5944015979766846,0.1167609691619873,-0.306118905544281
1774158620917135400,23.51113525390625,0.6613734364509583,0.3336770236492157,-0.24954618513584137
1774158620937129000,23.53112890625,0.5405763983726501,0.21105791628360748,-0.2249702662229538
1774158620957122000,23.5511220703125,0.4563174545764923,-0.19192150235176086,-0.03606133162975311
1774158620977116200,23.5711162109375,0.3294346332550049,-0.3413456082344055,0.2789120674133301
1774158620997110000,23.591110107421876,0.25180694460868835,-0.33888351917266846,0.4169681966304779
1774158621017104100,23.611104248046875,0.2144068330526352,-0.6689618229866028,0.1691053956747055
1774158621037098200,23.63109814453125,0.16914348304271698,-0.6270822882652283,0.14637479186058044
1774158621057091300,23.65109130859375,0.024143153801560402,-0.6105546951293945,0.16025331616401672
1774158621077085200,23.671085205078125,-0.0006082659820094705,-0.3564284145832062,0.021254688501358032
1774158621097079000,23.6910791015625,0.004876248072832823,-0.35762178897857666,0.015536881983280182
1774158621117073200,23.7110732421875,0.15832838416099548,-0.42160823941230774,0.14447541534900665
1774158621137067000,23.73106689453125,0.22714340686798096,-0.5233415365219116,0.24017292261123657
1774158621157060000,23.75106005859375,0.1796046495437622,-0.5416914820671082,0.19278782606124878
1774158621177054200,23.77105419921875,0.03358219563961029,-0.2970881462097168,0.05891391634941101
1774158621197048000,23.791048095703125,-0.04517972841858864,-0.01853693276643753,0.019593141973018646
1774158621217042200,23.811042236328124,-0.13021312654018402,-0.02569391205906868,0.01889858953654766
1774158621237036300,23.831036376953126,-0.12844346463680267,-0.12365536391735077,0.06914205104112625
1774158621257029000,23.851029052734376,-0.10097695142030716,-0.25145167112350464,0.09550362080335617
1774158621277023000,23.87102294921875,-0.03429245948791504,-0.2263692170381546,0.11953731626272202
1774158621297017000,23.89101708984375,0.047135286033153534,-0.17457659542560577,0.15014129877090454
1774158621317011200,23.91101123046875,0.11231855303049088,-0.09561573714017868,0.05742174759507179
1774158621337005000,23.931005126953124,0.18814274668693542,-0.021372133865952492,0.010944526642560959
1774158621356998100,23.950998046875,0.22524750232696533,0.026339728385210037,0.0504772886633873
1774158621376992000,23.970991943359376,0.22039468586444855,0.016275109723210335,-0.052798498421907425
1774158621396986000,23.990986083984374,0.2574664354324341,-0.26628467440605164,-0.3222621977329254
1774158621416980000,24.01097998046875,0.393874853849411,-0.43416157364845276,-0.6416878700256348
1774158621436973000,24.03097314453125,0.5209081768989563,-0.2351323515176773,-0.6572449803352356
1774158621456967200,24.05096728515625,0.6302255988121033,-0.044381845742464066,-0.637866199016571
1774158621476961000,24.0709609375,0.5712587237358093,-0.0638761818408966,-0.693594753742218
1774158621496955100,24.090955078125,0.43217217922210693,0.21766920387744904,-0.5842416286468506
1774158621516949200,24.11094921875,0.3603198230266571,0.2382783442735672,-0.3298601806163788
1774158621536942000,24.130942138671877,0.20817716419696808,-0.0838799849152565,-0.06287004053592682
1774158621556936000,24.15093603515625,-0.031138211488723755,-0.10260360687971115,0.09588498622179031
1774158621576930000,24.170929931640625,-0.19982443749904633,0.2914472818374634,0.16398628056049347
1774158621596924200,24.190924072265624,-0.2686612904071808,0.5091380476951599,0.3555612862110138
1774158621616918000,24.21091796875,-0.3573000729084015,0.37330248951911926,0.2579316794872284
1774158621636911000,24.2309111328125,-0.3710111081600189,0.21304622292518616,0.166598841547966
1774158621656905200,24.2509052734375,-0.38844627141952515,0.1578514128923416,0.1809130609035492
1774158621676899000,24.270899169921876,-0.4197802245616913,0.10160252451896667,0.1458035409450531
1774158621696893200,24.29089306640625,-0.4204489588737488,0.1267869770526886,0.08869577944278717
1774158621716887000,24.310886962890624,-0.4009133279323578,0.1541978269815445,0.11852344870567322
1774158621736880000,24.330880126953126,-0.4042673110961914,0.01076582819223404,0.18644604086875916
1774158621756874000,24.3508740234375,-0.41933122277259827,-0.01654116064310074,0.17207562923431396
1774158621776868000,24.3708681640625,-0.41956478357315063,-0.04879656806588173,0.20882537961006165
1774158621796862200,24.3908623046875,-0.4053286015987396,-0.08546989411115646,0.25713858008384705
1774158621816856000,24.41085595703125,-0.36851251125335693,-0.13074256479740143,0.26616910099983215
1774158621836849200,24.43084912109375,-0.3190288543701172,-0.16217824816703796,0.23406922817230225
1774158621856843000,24.450843017578126,-0.2519584596157074,-0.2023744136095047,0.16269810497760773
1774158621876837000,24.470837158203125,-0.15676777064800262,-0.21087202429771423,0.0893746167421341
1774158621896831000,24.4908310546875,-0.079947829246521,-0.2309940755367279,0.0361098013818264
1774158621916824000,24.510823974609377,-0.012582637369632721,-0.30977490544319153,0.019478093832731247
1774158621936818200,24.530818115234375,0.014538994990289211,-0.4260684847831726,0.05993736907839775
1774158621956812000,24.55081201171875,0.03642218932509422,-0.4781513810157776,0.09301675856113434
1774158621976806100,24.57080615234375,0.10858400166034698,-0.41285440325737,0.01444125734269619
