time,seconds_elapsed,z,y,x
1774158597463090700,0.057090576171875,-0.5218397378921509,-0.5344757437705994,0.48235610127449036
1774158597483084800,0.077084716796875,-0.7099666595458984,-0.45179563760757446,0.40427297353744507
1774158597503078700,0.09707861328125,-0.733161449432373,-0.33416029810905457,0.19244584441184998
1774158597523072800,0.11707275390625,-0.6166226267814636,-0.24298138916492462,0.02528885379433632
1774158597543066600,0.137066650390625,-0.5058017373085022,-0.18346604704856873,-0.04996173083782196
1774158597563060700,0.157060791015625,-0.4090863764286041,-0.16685110330581665,-0.004937841556966305
1774158597583054800,0.177054931640625,-0.37381717562675476,-0.15607237815856934,0.1149720773100853
1774158597603048700,0.197048583984375,-0.45033589005470276,-0.13198454678058624,0.12233375012874603
1774158597623042800,0.217042724609375,-0.5554918050765991,-0.15042449533939362,-0.08043915778398514
1774158597643037000,0.237036865234375,-0.5867822766304016,-0.20128853619098663,-0.27330538630485535
1774158597663030800,0.25703076171875,-0.541065514087677,-0.2623460590839386,-0.3714418113231659
1774158597683024600,0.277024658203125,-0.45476776361465454,-0.09795544296503067,-0.3096829056739807
1774158597703018800,0.297018798828125,-0.38650599122047424,-0.0238963533192873,-0.1784326285123825
1774158597723012600,0.3170126953125,-0.3923310935497284,-0.1294238269329071,-0.08831555396318436
1774158597743006700,0.3370068359375,-0.39099937677383423,-0.08870279788970947,-0.08517209440469742
1774158597763000800,0.357000732421875,-0.32456308603286743,-0.1301071047782898,-0.20028477907180786
1774158597782994700,0.37699462890625,-0.2825682759284973,-0.12944965064525604,-0.2787396311759949
1774158597802988800,0.39698876953125,-0.20849530398845673,-0.18166251480579376,-0.25748297572135925
1774158597822983000,0.41698291015625,-0.05646994709968567,-0.08884227275848389,-0.11717136949300766
1774158597842976800,0.436976806640625,0.12515857815742493,0.06933443993330002,0.07648877054452896
1774158597862971000,0.456970947265625,0.25567707419395447,-0.10059627890586853,0.19752910733222961
1774158597882964700,0.47696484375,0.31212863326072693,-0.12629950046539307,0.30701136589050293
1774158597902958800,0.496958740234375,0.3276757597923279,-0.10419604927301407,0.3786778748035431
1774158597922952700,0.51695263671875,0.367424875497818,-0.05615079402923584,0.35704168677330017
1774158597942946600,0.536946533203125,0.41046807169914246,0.05904984846711159,0.3702527582645416
1774158597962940700,0.556940673828125,0.4351522922515869,0.21982727944850922,0.23885869979858398
1774158597982934800,0.576934814453125,0.4971611499786377,0.1974172443151474,-0.160214364528656
1774158598002928600,0.5969287109375,0.5444976687431335,-0.05159086734056473,-0.3638518750667572
1774158598022922800,0.6169228515625,0.5814122557640076,-0.11025997251272202,-0.43973392248153687
1774158598042916900,0.636916748046875,0.5974614024162292,-0.05899107828736305,-0.4118475615978241
1774158598062910700,0.65691064453125,0.6138579249382019,-0.2640612721443176,-0.27726835012435913
1774158598082904800,0.67690478515625,0.8046648502349854,-0.6784027814865112,0.054146699607372284
1774158598102899000,0.69689892578125,1.3274614810943604,-1.040713906288147,0.5174592733383179
1774158598122892800,0.716892822265625,2.196300506591797,-1.2280967235565186,1.128409504890442
1774158598142887000,0.736886962890625,2.5698516368865967,-0.9929580688476562,1.651830792427063
1774158598162880800,0.756880859375,2.0412516593933105,-0.7600462436676025,1.5897648334503174
1774158598182874600,0.77687451171875,1.5718612670898438,-0.6920984983444214,1.3754256963729858
1774158598202868700,0.79686865234375,1.9036767482757568,-0.841141402721405,1.4092446565628052
1774158598222862800,0.81686279296875,2.401216983795166,-1.1522966623306274,1.7200777530670166
1774158598242856700,0.836856689453125,2.948157548904419,-0.7605569958686829,1.72418212890625
1774158598262850800,0.856850830078125,3.0472795963287354,-0.4651753306388855,1.8272680044174194
1774158598282845400,0.876845458984375,3.087223529815674,-0.37594252824783325,1.7989643812179565
1774158598302839600,0.896839599609375,3.1503186225891113,-0.2497876137495041,1.5867669582366943
1774158598322833700,0.916833740234375,3.3595292568206787,-0.02431483380496502,1.4812098741531372
1774158598342827500,0.93682763671875,3.8726444244384766,-0.31582579016685486,1.6189080476760864
1774158598362821600,0.956821533203125,4.286129951477051,-1.0148855447769165,2.1880040168762207
1774158598382815500,0.9768154296875,4.252350807189941,-1.347240924835205,2.6642203330993652
1774158598402809600,0.9968095703125,4.087616443634033,-0.9183053374290466,2.5325772762298584
1774158598422803500,1.016803466796875,3.9627199172973633,-0.35646456480026245,1.992621660232544
1774158598442797300,1.03679736328125,3.852994680404663,-0.20162899792194366,1.582129716873169
1774158598462791400,1.05679150390625,3.6965041160583496,-0.6691001653671265,1.6839573383331299
1774158598482785500,1.07678564453125,3.5164852142333984,-0.8761345148086548,1.8589515686035156
1774158598502779400,1.096779296875,3.298398733139038,-0.7820634841918945,1.8732209205627441
1774158598522773500,1.1167734375,3.100825548171997,-0.49484577775001526,1.7903224229812622
1774158598542767600,1.136767578125,2.8690545558929443,-0.30060362815856934,1.5216186046600342
1774158598562761500,1.156761474609375,2.440004587173462,-0.30656111240386963,1.1002988815307617
1774158598582755600,1.176755615234375,2.0855751037597656,-0.2638489007949829,0.6294006109237671
1774158598602749700,1.196749755859375,1.7245635986328125,-0.25672203302383423,0.03050277754664421
1774158598622743600,1.21674365234375,1.5693411827087402,-0.35844191908836365,-0.3864617943763733
1774158598642737700,1.236737548828125,1.5322688817977905,-0.39864468574523926,-0.4857829809188843
1774158598662731500,1.2567314453125,1.3372445106506348,-0.41363486647605896,-0.45465871691703796
1774158598682725400,1.276725341796875,1.0731253623962402,-0.42903169989585876,-0.2295200675725937
1774158598702719500,1.296719482421875,0.7268931269645691,-0.5230163335800171,-0.1120709776878357
1774158598722713300,1.31671337890625,0.3898463249206543,-0.3873894214630127,-0.11353545635938644
1774158598742707500,1.33670751953125,0.18102480471134186,-0.31673234701156616,-0.2527499496936798
1774158598762701600,1.35670166015625,0.24209532141685486,-0.3647712469100952,-0.19805549085140228
1774158598782695400,1.3766953125,0.5674548745155334,-0.46593284606933594,-0.10217335820198059
1774158598802689500,1.396689453125,0.7770779728889465,-0.42896080017089844,-0.03127216547727585
1774158598822683600,1.41668359375,0.687605082988739,-0.3791339695453644,0.004939628299325705
1774158598842677500,1.436677490234375,0.5454191565513611,-0.26890018582344055,-0.04194053262472153
1774158598862671600,1.456671630859375,0.3959542214870453,-0.23106735944747925,0.023292575031518936
1774158598882665500,1.47666552734375,0.27308300137519836,-0.19665852189064026,0.07973691821098328
1774158598902659300,1.496659423828125,0.24625979363918304,-0.16259881854057312,0.06589409708976746
1774158598922653400,1.5166533203125,0.12611991167068481,-0.020203933119773865,0.10734068602323532
1774158598942647600,1.5366474609375,0.07000663131475449,0.24871239066123962,0.16957418620586395
1774158598962641400,1.556641357421875,0.049188364297151566,0.1279740184545517,0.2275843769311905
1774158598982635500,1.576635498046875,0.16641241312026978,-0.1983119696378708,0.3284209072589874
1774158599002629600,1.596629638671875,0.22994732856750488,-0.3034503757953644,0.3518345057964325
1774158599022623500,1.61662353515625,0.3271631598472595,-0.17366157472133636,0.23346883058547974
1774158599042617600,1.63661767578125,0.380789577960968,-0.28626981377601624,0.21437138319015503
1774158599062611500,1.656611572265625,0.4306676685810089,-0.4681127071380615,0.20974820852279663
1774158599082605600,1.67660546875,0.5197572112083435,-0.41627565026283264,0.2821669578552246
1774158599102599700,1.696599609375,0.44773152470588684,-0.41258522868156433,0.3749818503856659
1774158599122593300,1.71659326171875,0.5604509711265564,-0.36511898040771484,0.5346824526786804
1774158599142587400,1.73658740234375,0.8749391436576843,-0.40903937816619873,0.5513590574264526
1774158599162581500,1.75658154296875,0.6710106730461121,-0.5755853652954102,0.5204567909240723
1774158599182575400,1.776575439453125,0.2680109739303589,-0.6855548024177551,0.5743724703788757
1774158599202569500,1.796569580078125,0.06542972475290298,-0.5875034332275391,0.4660670757293701
1774158599222563600,1.8165634765625,0.02116851694881916,-0.3454921841621399,0.26813527941703796
1774158599242557400,1.836557373046875,0.08191459625959396,-0.036249514669179916,0.057010337710380554
1774158599262551600,1.856551513671875,0.3326088488101959,-0.25389936566352844,0.24884876608848572
1774158599282545400,1.87654541015625,0.3684077262878418,-0.1905171424150467,0.40670308470726013
1774158599302539300,1.896539306640625,0.17994512617588043,-0.2594105303287506,0.6105995774269104
1774158599322533400,1.916533447265625,-0.009502625092864037,-0.3478531837463379,0.6142520904541016
1774158599342527200,1.93652734375,0.02066260203719139,-0.18598435819149017,0.46593162417411804
1774158599362521000,1.95652099609375,-0.2554838955402374,0.021076660603284836,0.19852730631828308
1774158599382515200,1.97651513671875,-0.4326779842376709,0.23374047875404358,0.2708963453769684
1774158599402509300,1.99650927734375,-0.4825189411640167,0.18009373545646667,0.21505239605903625
1774158599422503200,2.016503173828125,-0.23924317955970764,0.6267721652984619,0.05137599632143974
1774158599442497300,2.036497314453125,-0.19091378152370453,0.9009194374084473,-0.03660968318581581
1774158599462491400,2.056491455078125,0.014949072152376175,0.6711258292198181,0.10406273603439331
1774158599482485200,2.0764853515625,0.15989255905151367,0.35879597067832947,0.3933197855949402
1774158599502479400,2.096479248046875,0.16002069413661957,0.0725087970495224,0.7653196454048157
1774158599522473200,2.11647314453125,0.04686903953552246,0.05726049840450287,1.0149486064910889
1774158599542467300,2.13646728515625,0.19649754464626312,0.1882006824016571,0.9849926233291626
1774158599562461400,2.15646142578125,0.3654893934726715,0.11899019032716751,0.9908319711685181
1774158599582455000,2.176455078125,0.2651439309120178,-0.13022774457931519,0.9875426888465881
1774158599602449200,2.19644921875,0.4005587697029114,-0.08358640223741531,0.7865118980407715
1774158599622443300,2.216443359375,0.28166502714157104,-0.3222184479236603,0.43734878301620483
1774158599642437000,2.23643701171875,0.2798764705657959,-0.5506198406219482,0.4746232032775879
1774158599662431200,2.25643115234375,0.28642550110816956,-0.7165970206260681,0.4658724367618561
1774158599682424300,2.27642431640625,0.31889837980270386,-0.23320253193378448,0.20573100447654724
1774158599702418400,2.29641845703125,0.29772910475730896,-0.012942461296916008,0.1194639578461647
1774158599722412300,2.316412353515625,0.25700998306274414,0.10317863523960114,0.05935945734381676
1774158599742406400,2.336406494140625,0.2076706737279892,0.1218314841389656,-0.09832827746868134
1774158599762400300,2.356400146484375,0.11354346573352814,-0.13926447927951813,-0.11570047587156296
1774158599782394000,2.37639404296875,0.1412636786699295,-0.5152661800384521,-0.1092424988746643
1774158599802388200,2.39638818359375,0.5786364674568176,-1.0033280849456787,-0.3412642776966095
1774158599822382300,2.41638232421875,0.9281226992607117,-1.604654312133789,-0.6336004734039307
1774158599842376200,2.436376220703125,0.9277929067611694,-1.963758945465088,-0.6607984304428101
1774158599862370300,2.456370361328125,0.745102047920227,-1.1957613229751587,-0.3684566020965576
1774158599882364200,2.4763642578125,0.606002151966095,-0.19231703877449036,-0.3200259506702423
1774158599902358300,2.496358154296875,0.4003506898880005,-0.27811190485954285,-0.40166065096855164
1774158599922352400,2.516352294921875,0.38648685812950134,0.018362827599048615,-0.38683992624282837
1774158599942346200,2.53634619140625,-0.0365791879594326,0.1839122772216797,-0.32458412647247314
1774158599962340400,2.55634033203125,-0.26108214259147644,0.13819551467895508,-0.2135242074728012
1774158599982334500,2.57633447265625,-0.26206162571907043,0.08313871920108795,-0.18858301639556885
1774158600002328000,2.596328125,-0.12667639553546906,-0.1845013052225113,-0.008820327930152416
1774158600022322200,2.616322265625,-0.04141124337911606,-0.3993411064147949,0.05581843852996826
1774158600042316300,2.63631640625,0.22927960753440857,-0.4924449622631073,0.022352134808897972
1774158600062310100,2.65631005859375,0.8894972801208496,0.13913309574127197,-0.22686916589736938
1774158600082304300,2.67630419921875,0.5915494561195374,0.4678802788257599,-0.1625521034002304
1774158600102298400,2.69629833984375,0.18133443593978882,0.07332250475883484,0.12421761453151703
1774158600122292200,2.716292236328125,0.017117369920015335,0.11362172663211823,0.024605078622698784
1774158600142286300,2.736286376953125,-0.14272722601890564,0.42595764994621277,-0.15074422955513
1774158600162280400,2.756280517578125,-0.2832127511501312,0.49207550287246704,-0.1150478646159172
1774158600182274300,2.7762744140625,-0.33933717012405396,0.38032740354537964,-0.013864712789654732
1774158600202268400,2.796268310546875,-0.37247589230537415,0.1825827658176422,0.04437969624996185
1774158600222262300,2.81626220703125,-0.3473411202430725,0.11510377377271652,0.08642416447401047
1774158600242256100,2.836256103515625,-0.34678930044174194,0.12267652153968811,0.11244410276412964
1774158600262250200,2.856250244140625,-0.46891161799430847,0.2911542057991028,0.05200933665037155
1774158600282244400,2.876244384765625,-0.5736059546470642,0.49849995970726013,-0.007497905753552914
1774158600302238500,2.896238525390625,-0.6154302954673767,0.6061612963676453,0.024302750825881958
1774158600322232300,2.916232421875,-0.564521849155426,0.47309908270835876,0.12314251810312271
1774158600342226200,2.93622607421875,-0.6052923798561096,0.4689212143421173,0.10804171115159988
1774158600362220300,2.95622021484375,-0.6782230734825134,0.4909058213233948,-0.0674290806055069
1774158600382213400,2.97621337890625,-0.7204591631889343,0.43416735529899597,-0.32980111241340637
1774158600402207500,2.99620751953125,-0.670384407043457,0.2867494225502014,-0.45291411876678467
1774158600422201300,3.016201416015625,-0.7245054244995117,0.13603489100933075,-0.387913316488266
1774158600442195500,3.036195556640625,-0.6472626328468323,0.1378767192363739,-0.35780957341194153
1774158600462189300,3.056189208984375,-0.4864494800567627,0.1799435317516327,-0.24578233063220978
1774158600482183400,3.076183349609375,-0.28743061423301697,-0.040484365075826645,-0.12541905045509338
1774158600502177300,3.09617724609375,-0.10669230669736862,-0.19659313559532166,0.0014508417807519436
1774158600522171100,3.116171142578125,-0.007134478539228439,-0.3364877700805664,-0.0003320216201245785
1774158600542165200,3.136165283203125,0.04522263631224632,-0.3656133711338043,-0.020632252097129822
1774158600562159400,3.156159423828125,0.01609973795711994,-0.3315902054309845,0.019517049193382263
1774158600582153200,3.1761533203125,-0.019861672073602676,-0.08896119892597198,0.09587564319372177
1774158600602147300,3.196147216796875,-0.034721266478300095,0.05000445246696472,0.16801674664020538
1774158600622141400,3.216141357421875,-0.09917370975017548,-0.12976381182670593,0.1311124712228775
1774158600642135300,3.23613525390625,-0.13869298994541168,-0.2277715802192688,0.11754307150840759
1774158600662129400,3.25612939453125,-0.018063530325889587,-0.19018672406673431,0.11840257048606873
1774158600682123500,3.27612353515625,0.20970198512077332,-0.25052517652511597,0.1628841757774353
1774158600702117400,3.296117431640625,0.4149000346660614,-0.47250914573669434,0.15189185738563538
1774158600722111500,3.316111572265625,0.4102204144001007,-0.5159539580345154,-0.04099678248167038
1774158600742105300,3.336105224609375,0.32827723026275635,-0.32141661643981934,0.0535716712474823
1774158600762099200,3.35609912109375,0.09790505468845367,-0.33916786313056946,0.07945041358470917
1774158600782093300,3.37609326171875,-0.0403013713657856,-0.22144323587417603,0.21482355892658234
1774158600802087400,3.39608740234375,-0.049313679337501526,-0.04234868288040161,0.3615589141845703
1774158600822081300,3.416081298828125,0.0046191164292395115,-0.08369226008653641,0.419370174407959
1774158600842075400,3.436075439453125,-0.03813394159078598,-0.5712600350379944,0.43667352199554443
1774158600862069200,3.4560693359375,0.2826659679412842,-0.27447226643562317,0.6442470550537109
1774158600882063400,3.4760634765625,-0.01773679256439209,0.20998352766036987,0.5439969897270203
1774158600902057500,3.496057373046875,-0.28400760889053345,0.10874803364276886,0.5557640790939331
1774158600922051300,3.51605126953125,-0.09344501793384552,0.5702575445175171,0.5139705538749695
1774158600942045400,3.53604541015625,-0.17310747504234314,0.667084276676178,0.3028896450996399
1774158600962039300,3.556039306640625,-0.13055914640426636,0.6274675130844116,0.3375996947288513
1774158600982032400,3.576032470703125,-0.1895509958267212,0.4964295029640198,0.30389097332954407
1774158601002026200,3.596026123046875,-0.1383855938911438,0.36382442712783813,0.25757041573524475
1774158601022020400,3.616020263671875,-0.08436185866594315,0.11524168401956558,0.20157846808433533
1774158601042014500,3.636014404296875,-0.07777351140975952,0.14951758086681366,0.20920729637145996
1774158601062008300,3.65600830078125,-0.09564826637506485,0.1935800313949585,0.17164480686187744
1774158601082002400,3.67600244140625,-0.14840218424797058,0.060988135635852814,0.10863562673330307
1774158601101996500,3.69599658203125,-0.03557785227894783,0.050105735659599304,0.014947222545742989
1774158601121990400,3.715990478515625,0.5832698345184326,0.4133387804031372,-0.19841104745864868
1774158601141984500,3.735984619140625,0.9962161779403687,0.4836474657058716,-0.32842111587524414
1774158601161978400,3.755978271484375,1.410544753074646,-0.3880120813846588,0.13219548761844635
1774158601181972200,3.77597216796875,1.6335279941558838,-0.8755649924278259,0.4618512690067291
1774158601201966300,3.79596630859375,1.8001399040222168,-1.0372182130813599,0.373122900724411
1774158601221960200,3.815960205078125,2.051887035369873,-0.8018522262573242,-0.15496933460235596
1774158601241954300,3.835954345703125,1.902173638343811,-0.4376406669616699,-0.9438155889511108
1774158601261948400,3.855948486328125,1.9005680084228516,-0.7218379974365234,-1.011864423751831
1774158601281942000,3.87594189453125,1.8269109725952148,-1.0675922632217407,-0.4902392029762268
1774158601301936000,3.89593603515625,1.4755871295928955,-1.3662261962890625,-0.16723087430000305
1774158601321930200,3.91593017578125,1.7152726650238037,-0.4621623754501343,-0.30806583166122437
1774158601341924000,3.935924072265625,3.148056983947754,0.5462028980255127,-1.3117210865020752
1774158601361918200,3.955918212890625,2.9315567016601562,-0.21133455634117126,-1.7796010971069336
1774158601381912300,3.975912353515625,2.207012414932251,-1.0621018409729004,-0.5596452355384827
1774158601401906200,3.99590625,2.100864887237549,-0.5552716255187988,-0.4849361479282379
1774158601421899000,4.01589892578125,1.6172926425933838,-0.08395148068666458,-0.7345982789993286
1774158601441893000,4.03589306640625,1.3415402173995972,0.11125440150499344,-0.8233756422996521
1774158601461887200,4.05588720703125,1.2546159029006958,0.056798454374074936,-0.8979655504226685
1774158601481881000,4.075881103515625,1.1069362163543701,-0.26001089811325073,-0.8742244243621826
1774158601501875200,4.095875244140625,0.8655293583869934,0.02034790813922882,-0.703471839427948
1774158601521869000,4.115869140625,0.8371273279190063,0.5182011127471924,-0.5227323770523071
1774158601541863200,4.13586328125,1.0133241415023804,0.9280561804771423,-0.3733961284160614
1774158601561857300,4.155857177734375,1.085787057876587,0.5415142178535461,-0.09328483790159225
1774158601581851100,4.17585107421875,0.8518109917640686,0.4063192307949066,-0.19034087657928467
1774158601601845000,4.195844970703125,0.31130194664001465,0.2842297852039337,-0.3482884168624878
1774158601621839000,4.215839111328125,0.035579122602939606,0.3948345184326172,-0.30270445346832275
1774158601641833000,4.2358330078125,-0.07377097010612488,0.28901293873786926,-0.1600932776927948
1774158601661827000,4.2558271484375,-0.04094970226287842,0.2680222988128662,0.014972846023738384
1774158601681821200,4.2758212890625,-0.17897376418113708,0.28376635909080505,0.1312301903963089
1774158601701815000,4.29581494140625,-0.1233801618218422,0.48592713475227356,0.0057947877794504166
1774158601721809200,4.31580908203125,0.05099140480160713,0.706399142742157,-0.07067308574914932
1774158601741802200,4.33580224609375,0.1263071447610855,0.5076550245285034,0.2492264360189438
1774158601761796400,4.35579638671875,0.14783185720443726,0.5848544239997864,0.3768329620361328
1774158601781790200,4.375790283203125,0.08128486573696136,0.7982067465782166,0.5974472165107727
1774158601801784000,4.3957841796875,0.20979256927967072,0.47734710574150085,0.4239252209663391
1774158601821778200,4.415778076171875,0.5159959197044373,0.14264193177223206,0.10579832643270493
1774158601841772000,4.43577197265625,0.8373403549194336,0.12560336291790009,-0.5870549082756042
1774158601861766100,4.45576611328125,0.5898396372795105,-0.5162531733512878,-0.3907146155834198
1774158601881760000,4.475760009765625,0.625312089920044,-0.13259993493556976,-1.546163558959961
1774158601901754000,4.495754150390625,0.023781035095453262,-0.09991827607154846,-1.164101243019104
1774158601921748200,4.515748291015625,-0.5280477404594421,-0.5613622665405273,-0.5693305134773254
1774158601941742000,4.5357421875,-0.5756519436836243,-0.3148018419742584,-0.03841504827141762
1774158601961736200,4.555736083984375,-0.27863895893096924,-0.23467682301998138,0.24310092628002167
1774158601981730300,4.575730224609375,0.05889837443828583,-0.7342524528503418,0.4094459116458893
1774158602001723100,4.59572314453125,-0.04541037231683731,-0.965989887714386,0.6362480521202087
1774158602021717000,4.615717041015625,0.6875893473625183,-0.6347388625144958,1.100106120109558
1774158602041711000,4.635711181640625,1.6182242631912231,0.9531577229499817,1.7597955465316772
1774158602061705200,4.655705322265625,2.0523149967193604,3.248105525970459,2.515354633331299
1774158602081699000,4.675698974609375,2.5831730365753174,-0.8126626014709473,1.0004507303237915
1774158602101693200,4.695693115234375,2.839801073074341,-0.0744529590010643,-0.4579560160636902
1774158602121687300,4.715687255859375,3.232438564300537,0.5270115733146667,-1.2218382358551025
1774158602141681200,4.73568115234375,2.4483330249786377,1.0638383626937866,-1.7679976224899292
1774158602161675300,4.75567529296875,0.8529943823814392,1.4749846458435059,-1.7517637014389038
1774158602181669000,4.775669189453125,-0.15121787786483765,1.2911338806152344,-0.44464555382728577
1774158602201663200,4.795663330078125,-0.2999851405620575,0.13132193684577942,0.7491700649261475
1774158602221657000,4.815656982421875,0.017009129747748375,-0.6768026947975159,0.8465346693992615
1774158602241650200,4.835650146484375,0.36982396245002747,-0.5633285045623779,0.5294288992881775
1774158602261644000,4.85564404296875,0.2177547961473465,0.2099955976009369,-0.16147494316101074
1774158602281638000,4.875637939453125,0.18048891425132751,0.9462689161300659,-0.45767825841903687
1774158602301632000,4.895632080078125,0.1743919998407364,1.364405870437622,-0.4544602334499359
1774158602321625900,4.9156259765625,0.09256623685359955,0.30660581588745117,0.3029332160949707
1774158602341620000,4.935619873046875,0.40927422046661377,0.5041067600250244,0.7654168009757996
1774158602361614000,4.955614013671875,0.3189592659473419,0.2252679318189621,0.3240678608417511
1774158602381608000,4.97560791015625,0.31187087297439575,0.23716597259044647,-0.13214652240276337
1774158602401602000,4.99560205078125,0.27548542618751526,0.15438319742679596,-0.15917573869228363
1774158602421596200,5.01559619140625,0.2804863452911377,-0.26258179545402527,0.3177909255027771
1774158602441590000,5.035590087890625,0.2453598529100418,-0.26938438415527344,0.35200127959251404
1774158602461584100,5.055584228515625,0.06863332539796829,0.3251701593399048,-0.14135384559631348
1774158602481577000,5.075576904296875,-0.08899980038404465,0.9707340002059937,-0.6192705631256104
1774158602501570800,5.09557080078125,-0.1516425460577011,1.0948055982589722,-0.7805550694465637
1774158602521565000,5.11556494140625,-0.12338448315858841,0.5031861066818237,-0.4665689766407013
1774158602541559000,5.13555908203125,-0.28324636816978455,0.11629711836576462,-0.33760595321655273
1774158602561553000,5.155552978515625,-0.4982166886329651,-0.0675453245639801,-0.8898016214370728
1774158602581547000,5.175547119140625,-0.19510121643543243,0.10718775540590286,-1.0867183208465576
1774158602601541000,5.195541015625,0.099985271692276,0.31941351294517517,-0.9635588526725769
1774158602621535000,5.215534912109375,0.10242568701505661,0.43219757080078125,-0.7601808309555054
1774158602641529000,5.235529052734375,0.04743921756744385,0.5656817555427551,-0.5363246202468872
1774158602661523200,5.255523193359375,0.060561347752809525,0.12760630249977112,-0.12400764971971512
1774158602681517000,5.27551708984375,0.008219156414270401,-2.133910894393921,2.0180704593658447
1774158602701510000,5.295510009765625,-0.36369356513023376,-1.5875149965286255,1.81263267993927
1774158602721504000,5.31550390625,-0.11875010281801224,0.026185885071754456,0.6249585747718811
1774158602741498000,5.335498046875,-0.011991435661911964,1.2080485820770264,-0.5537413358688354
1774158602761492000,5.355491943359375,-0.026372035965323448,1.3232927322387695,-0.5727072358131409
1774158602781486000,5.375486083984375,-0.027370193973183632,1.4534944295883179,-0.3973778188228607
1774158602801480000,5.39547998046875,0.031958095729351044,0.7715938687324524,0.37782829999923706
1774158602821474000,5.41547412109375,-0.19455721974372864,0.3508854806423187,0.7199207544326782
1774158602841468200,5.43546826171875,-0.23049356043338776,-0.38950294256210327,1.2658082246780396
1774158602861462000,5.4554619140625,-0.2044244408607483,-2.505042552947998,2.475581645965576
1774158602881455900,5.475455810546875,-0.022707195952534676,-5.254152774810791,3.6959950923919678
1774158602901449000,5.495448974609375,-0.5324980616569519,-2.4702212810516357,0.5931737422943115
1774158602921443000,5.515443115234375,-0.3140939176082611,1.365907073020935,0.36675286293029785
1774158602941437000,5.53543701171875,-0.34950119256973267,0.9722594022750854,-0.21408580243587494
1774158602961431000,5.55543115234375,-0.19017155468463898,0.20750907063484192,-0.3068886697292328
1774158602981425200,5.575425048828125,-0.23291181027889252,-0.24749189615249634,-0.24185512959957123
1774158603001419000,5.5954189453125,-0.026408711448311806,0.2218901664018631,-0.299390971660614
1774158603021413000,5.6154130859375,-0.26018351316452026,-0.009355295449495316,-0.0673835426568985
1774158603041407200,5.6354072265625,-0.3629915118217468,-0.49315232038497925,0.45112335681915283
1774158603061401000,5.655401123046875,-0.4890282452106476,-0.953374981880188,0.9194415807723999
1774158603081395000,5.67539501953125,-0.5438828468322754,-0.9891318082809448,0.9840847253799438
1774158603101388000,5.695387939453125,0.06963230669498444,-0.5216048359870911,0.6161931753158569
1774158603121382000,5.7153818359375,0.2104600965976715,-0.6487385630607605,0.37351128458976746
1774158603141376000,5.7353759765625,0.32074686884880066,-0.9864170551300049,0.4386487305164337
1774158603161370000,5.7553701171875,0.5061275959014893,-1.8025093078613281,0.40776053071022034
1774158603181364000,5.775364013671875,0.743995189666748,-2.2352025508880615,0.3635169565677643
1774158603201358000,5.795358154296875,0.7901211977005005,-1.7684247493743896,0.19911164045333862
1774158603221352200,5.815352294921875,0.6839410066604614,-1.3003381490707397,-0.06609860062599182
1774158603241346000,5.835345947265625,0.6407333612442017,-0.8098189830780029,0.018908709287643433
1774158603261340000,5.85533984375,0.8328931331634521,0.5572280883789062,-0.1946500837802887
1774158603281333000,5.8753330078125,0.7459723949432373,0.18179351091384888,0.13736775517463684
1774158603301327000,5.8953271484375,0.8608968257904053,-0.3672112226486206,0.7901567220687866
1774158603321321000,5.915321044921875,0.8963255882263184,-0.12359990179538727,0.7663217782974243
1774158603341315000,5.935315185546875,0.46378397941589355,-0.10036500543355942,0.1820714920759201
1774158603361309000,5.955308837890625,-0.14978502690792084,0.023936204612255096,-0.25064197182655334
1774158603381303000,5.975302978515625,-0.6296749711036682,1.4500608444213867,-0.8470519185066223
1774158603401297200,5.995297119140625,-0.3224954903125763,1.1445281505584717,-0.3435761630535126
1774158603421291000,6.015291015625,0.31888917088508606,-0.6564518213272095,-0.005521027371287346
1774158603441284900,6.035284912109375,0.32546186447143555,-0.5595443248748779,0.003564829472452402
1774158603461279000,6.055279052734375,0.21435903012752533,0.18529297411441803,-0.270092248916626
1774158603481272000,6.07527197265625,0.11163874715566635,0.6881885528564453,-0.3118574917316437
1774158603501266000,6.095265869140625,-0.05590233579277992,0.41809365153312683,0.24036265909671783
1774158603521260000,6.115260009765625,0.07402238994836807,-0.2996087372303009,0.6038262248039246
1774158603541254100,6.135254150390625,0.2439640909433365,-0.046054400503635406,0.24066221714019775
1774158603561248000,6.155248046875,0.1526758372783661,-0.04603048786520958,-0.006324633024632931
1774158603581242000,6.1752421875,0.012647987343370914,0.12020713090896606,-0.12943513691425323
1774158603601236200,6.195236328125,-0.08676385134458542,0.2254730761051178,-0.41996121406555176
1774158603621230000,6.21522998046875,-0.10764925926923752,0.3496193289756775,-0.8436374068260193
1774158603641224000,6.235223876953125,-0.07387949526309967,0.5103639364242554,-0.8724760413169861
1774158603661217000,6.255217041015625,-0.03424544632434845,0.6918382048606873,-0.957327663898468
1774158603681211000,6.2752109375,-0.04101703315973282,0.7508606314659119,-1.1050429344177246
1774158603701205000,6.295205078125,0.09851626306772232,0.8030024170875549,-0.8685709238052368
1774158603721199000,6.31519921875,0.03386358171701431,0.2634352445602417,-0.322579950094223
1774158603741193000,6.33519287109375,0.04312508925795555,0.0004930200520902872,-0.19437167048454285
1774158603761187000,6.35518701171875,0.038169585168361664,-0.3121306598186493,-0.6553682684898376
1774158603781181200,6.37518115234375,0.19179899990558624,-0.3212157189846039,-0.9908915758132935
1774158603801175000,6.395175048828125,0.49220913648605347,-0.2259557843208313,-0.9234553575515747
1774158603821167900,6.41516796875,0.4748932123184204,-0.3002413213253021,-0.7986693382263184
1774158603841162000,6.435161865234375,0.3055167496204376,0.025437019765377045,-0.5514059066772461
1774158603861156000,6.455156005859375,0.062282051891088486,0.07038803398609161,-0.4645087420940399
1774158603881150000,6.47514990234375,0.09106548875570297,-0.22603349387645721,-0.057069674134254456
1774158603901144000,6.49514404296875,0.0748075395822525,0.04376892372965813,0.31255218386650085
1774158603921138200,6.51513818359375,0.000434286892414093,0.4428940415382385,0.31638509035110474
1774158603941132000,6.535132080078125,0.0030224425718188286,0.6300987005233765,0.3263562321662903
1774158603961126100,6.555126220703125,-0.08305433392524719,0.07969988882541656,0.013440030626952648
1774158603981120000,6.5751201171875,-0.001098560867831111,-0.484915167093277,-0.07236234843730927
1774158604001112800,6.59511279296875,-0.21991826593875885,-0.5037969946861267,0.21639755368232727
1774158604021107000,6.61510693359375,-0.4321497082710266,-1.3908765316009521,0.1999218761920929
1774158604041101000,6.63510107421875,-0.43401771783828735,-0.7461981177330017,-0.02433537319302559
1774158604061095000,6.655094970703125,-0.37407687306404114,-0.175302654504776,-0.05381651222705841
1774158604081089000,6.675089111328125,-0.4572855234146118,0.12576334178447723,0.07070405036211014
1774158604101083100,6.695083251953125,-0.4182918667793274,0.12169923633337021,0.1672278642654419
1774158604121077000,6.715076904296875,-0.3011583089828491,0.12079241126775742,0.11780443787574768
1774158604141071000,6.735071044921875,-0.41165366768836975,0.34729108214378357,0.03581151366233826
1774158604161064000,6.75506396484375,-0.3709353506565094,0.08779542148113251,0.09007574617862701
1774158604181058000,6.77505810546875,-0.42789438366889954,-0.04118356853723526,0.13177070021629333
1774158604201052000,6.795052001953125,-0.30298954248428345,-0.3485729992389679,0.21513013541698456
1774158604221046000,6.8150458984375,-0.18857696652412415,-0.5200691819190979,0.22025474905967712
1774158604241040000,6.835039794921875,0.18017679452896118,-0.29744386672973633,0.14320121705532074
1774158604261034000,6.855033935546875,0.2680054008960724,-0.3143753111362457,0.011606014333665371
1774158604281028000,6.875028076171875,0.088801309466362,-0.2796522080898285,0.02284173294901848
1774158604301022000,6.89502197265625,-0.029768139123916626,-0.3001048266887665,0.05342474579811096
1774158604321014800,6.915014892578125,-0.02786998823285103,-0.19318772852420807,0.05335536599159241
1774158604341009000,6.9350087890625,0.10316059738397598,-0.04763400927186012,-0.0025145846884697676
1774158604361003000,6.9550029296875,0.18233147263526917,0.025318779051303864,-0.09555912017822266
1774158604380996900,6.974996826171875,0.4293307363986969,-0.32292819023132324,-0.05502700433135033
1774158604400991000,6.994990966796875,0.5127871632575989,-0.5885794758796692,0.10526666045188904
1774158604420985000,7.014985107421875,0.4902724027633667,-0.5439289212226868,0.15101240575313568
1774158604440979000,7.03497900390625,0.68406081199646,-0.009552513249218464,-0.22086623311042786
1774158604460973000,7.05497314453125,0.7176423668861389,1.1091151237487793,-0.5152586102485657
1774158604480966000,7.0749658203125,0.6823922395706177,1.3483096361160278,-0.5581272840499878
1774158604500960000,7.0949599609375,0.4541068375110626,0.8119764924049377,-0.3781622648239136
1774158604520953900,7.114953857421875,0.3106006979942322,0.5250635147094727,-0.5496513247489929
1774158604540948000,7.134947998046875,0.21903400123119354,0.8608156442642212,-0.3421640396118164
1774158604560941800,7.15494189453125,0.18043778836727142,0.6969687342643738,-0.2464379221200943
1774158604580936000,7.17493603515625,0.03820769488811493,0.44995927810668945,-0.1749020665884018
1774158604600930000,7.194929931640625,-0.06193138659000397,0.17030876874923706,0.028542406857013702
1774158604620924000,7.214923828125,0.002627953886985779,-0.1375909149646759,0.1928686648607254
1774158604640917000,7.2349169921875,0.18543250858783722,-0.4967312812805176,0.16694989800453186
1774158604660911000,7.2549111328125,0.26410993933677673,-0.8922731280326843,0.2298571765422821
1774158604680905000,7.274905029296875,0.2886066734790802,-1.0548150539398193,0.42316609621047974
1774158604700898800,7.29489892578125,0.2134454846382141,-0.743506133556366,0.7530543208122253
1774158604720893000,7.314892822265625,0.34346476197242737,-0.8791560530662537,0.8588091731071472
1774158604740887000,7.334886962890625,0.4252474308013916,-1.3555103540420532,0.2648525536060333
1774158604760881000,7.354880859375,0.2809012830257416,-0.5754991769790649,-0.1695132702589035
1774158604780875000,7.374875,0.1334107369184494,0.22404932975769043,0.025470832362771034
1774158604800868000,7.3948681640625,0.10299915820360184,0.20681865513324738,0.001364404335618019
1774158604820862000,7.414862060546875,0.07025930285453796,0.15671737492084503,0.019777391105890274
1774158604840856000,7.43485595703125,-0.000025463290512561798,0.28583580255508423,-0.08247615396976471
1774158604860850000,7.454849853515625,0.09847940504550934,0.10955340415239334,-0.29402413964271545
1774158604880843800,7.47484375,0.06573605537414551,-0.20939697325229645,-0.04601842910051346
1774158604900838000,7.494837890625,0.06185120716691017,-0.2903479337692261,0.16420967876911163
1774158604920832000,7.51483203125,0.098448745906353,-0.27923938632011414,0.23674233257770538
1774158604940825900,7.534825927734375,0.09076827764511108,-0.28851526975631714,0.1983572393655777
1774158604960819000,7.55481884765625,0.043745119124650955,-0.5218784809112549,-0.018594663590192795
1774158604980813000,7.57481298828125,0.025611041113734245,-0.6443108320236206,-0.11564170569181442
1774158605000807200,7.59480712890625,-0.014186070300638676,-0.6461838483810425,-0.26659709215164185
1774158605020801000,7.614801025390625,0.19696104526519775,-0.7774342894554138,-0.4229765832424164
1774158605040795100,7.634795166015625,0.4878930151462555,-0.1912529021501541,-0.5656698346138
1774158605060789000,7.6547890625,0.5540539026260376,0.24335846304893494,-0.7682096362113953
1774158605080782800,7.674782958984375,0.35865500569343567,0.16983932256698608,-0.7905458211898804
1774158605100776000,7.69477587890625,0.040200334042310715,-0.3251611292362213,-0.6508899331092834
1774158605120770000,7.71477001953125,-0.26684874296188354,-0.3153320550918579,-0.06310706585645676
1774158605140764000,7.734763916015625,-0.32137876749038696,0.29526305198669434,0.04571450501680374
1774158605160758000,7.754758056640625,-0.34023410081863403,0.4743267595767975,-0.3028012216091156
1774158605180752100,7.774752197265625,-0.24596886336803436,0.3365667462348938,-0.016659583896398544
1774158605200746000,7.79474609375,-0.14114612340927124,0.12862613797187805,0.23408617079257965
1774158605220740000,7.814739990234375,-0.1044737696647644,0.18235532939434052,0.07242134213447571
1774158605240734000,7.83473388671875,-0.10374937951564789,0.36538320779800415,-0.125001922249794
1774158605260727000,7.85472705078125,-0.13048410415649414,0.5908707976341248,-0.1487867832183838
1774158605280721000,7.874720947265625,-0.2629140019416809,0.9424852132797241,-0.17859558761119843
1774158605300715800,7.8947158203125,-0.3420204520225525,1.5006189346313477,-0.30599305033683777
1774158605320709600,7.914709716796875,-0.33159467577934265,1.588362693786621,-0.38566914200782776
1774158605340703500,7.934703369140625,-0.4072697162628174,1.5744898319244385,-0.1735105663537979
1774158605360697600,7.954697509765625,-0.38388001918792725,1.2862573862075806,-0.25103792548179626
1774158605380691500,7.97469140625,-0.3669452965259552,0.8920449614524841,-0.12454821914434433
1774158605400684500,7.9946845703125,-0.3568323850631714,0.2845136523246765,0.10823342949151993
1774158605420678700,8.0146787109375,-0.391985148191452,-0.45519575476646423,0.35234567523002625
1774158605440672500,8.034672607421875,-0.3598617911338806,-1.095604658126831,0.32067713141441345
1774158605460666600,8.05466650390625,-0.30805566906929016,-1.3850858211517334,0.31804394721984863
1774158605480660700,8.07466064453125,-0.2207365334033966,-1.5776631832122803,0.2939709424972534
1774158605500654600,8.094654541015625,-0.13316677510738373,-1.464159607887268,0.26795056462287903
1774158605520648400,8.1146484375,-0.07315540313720703,-0.9875497817993164,0.0793987438082695
1774158605540641500,8.1346416015625,-0.0654529556632042,-0.7763599157333374,0.04190235212445259
1774158605560635600,8.1546357421875,-0.05162147060036659,-0.8006682991981506,0.08715341985225677
1774158605580629500,8.17462939453125,-0.00021232105791568756,-0.6330776214599609,0.08145122230052948
1774158605600623600,8.19462353515625,0.04970605671405792,-0.27147531509399414,-0.08162912726402283
1774158605620617700,8.21461767578125,0.1177409365773201,-0.470289021730423,-0.14719778299331665
1774158605640611600,8.234611572265624,0.16938099265098572,-0.5907405614852905,-0.09863156825304031
1774158605660605700,8.254605712890625,0.27008557319641113,-0.6087247133255005,-0.18832804262638092
1774158605680598500,8.2745986328125,0.3059787452220917,-0.6371994614601135,-0.3333337604999542
1774158605700592600,8.294592529296875,0.4214312434196472,-0.5517632365226746,-0.4076794385910034
1774158605720586500,8.31458642578125,0.4568219780921936,-0.49970322847366333,-0.19518528878688812
1774158605740580600,8.33458056640625,0.4314216077327728,-0.5607838034629822,0.07584153860807419
1774158605760574500,8.354574462890625,0.2510451674461365,-0.7564702033996582,0.23934178054332733
1774158605780568600,8.374568603515625,0.05214595049619675,-0.7520391941070557,0.28430041670799255
1774158605800562700,8.394562744140625,-0.1450469195842743,-0.6735116839408875,0.21116353571414948
1774158605820555800,8.4145556640625,-0.23884795606136322,-0.6297453045845032,0.20046471059322357
1774158605840549600,8.434549560546875,-0.1566898375749588,-0.5909638404846191,0.22530031204223633
1774158605860543500,8.45454345703125,-0.08399821817874908,-0.6358319520950317,0.2804083824157715
1774158605880537600,8.47453759765625,0.03908195346593857,-0.709865391254425,0.37404122948646545
1774158605900531500,8.494531494140626,0.19088329374790192,-0.8241536617279053,0.4745776355266571
1774158605920525600,8.514525634765626,0.20274028182029724,-0.7973571419715881,0.5512630343437195
1774158605940519700,8.534519775390624,0.20318059623241425,-0.7495004534721375,0.5842298865318298
1774158605960513500,8.554513427734374,0.2559550106525421,-0.5360440015792847,0.501926839351654
1774158605980506600,8.574506591796874,0.14457349479198456,-0.44342464208602905,0.4891315996646881
1774158606000500700,8.594500732421874,0.14209972321987152,-0.507402241230011,0.4689803123474121
1774158606020494600,8.61449462890625,0.22660993039608002,-0.4912821054458618,0.3491430878639221
1774158606040488400,8.634488525390625,0.29196596145629883,-0.3733271062374115,0.29063907265663147
1774158606060482600,8.654482666015625,0.27002832293510437,-0.37457558512687683,0.26806721091270447
1774158606080476400,8.674476318359375,0.20856577157974243,-0.48472124338150024,0.2733778953552246
1774158606100469500,8.694469482421875,0.0981840193271637,-0.5086143016815186,0.17895880341529846
1774158606120463600,8.714463623046875,0.09110482037067413,-0.43473362922668457,0.13512174785137177
1774158606140457700,8.734457763671875,0.130484938621521,-0.36370936036109924,0.15516911447048187
1774158606160451600,8.75445166015625,0.17827406525611877,-0.41460150480270386,0.12912394106388092
1774158606180445700,8.77444580078125,0.33332744240760803,-0.5432623028755188,0.11010441184043884
1774158606200439800,8.794439697265625,0.4136338233947754,-0.68670654296875,0.08073078095912933
1774158606220433700,8.81443359375,0.2678254246711731,-0.7115529775619507,-0.013391684740781784
1774158606240426500,8.834426513671875,0.14433011412620544,-0.7097302675247192,-0.08223135769367218
1774158606260420600,8.854420654296876,0.26486095786094666,-1.0541114807128906,-0.29751917719841003
1774158606280414500,8.87441455078125,0.53670734167099,-1.2485519647598267,-0.31946274638175964
1774158606300408300,8.894408203125,0.7836856842041016,-1.1647899150848389,-0.21780705451965332
1774158606320402400,8.91440234375,0.740811288356781,-0.9215466976165771,-0.2546340525150299
1774158606340396300,8.934396240234374,0.39022690057754517,-0.7168964743614197,-0.18002700805664062
1774158606360390400,8.954390380859374,0.061905473470687866,-0.6356463432312012,-0.19004422426223755
1774158606380383500,8.974383544921874,-0.004543454386293888,-0.5831192135810852,-0.22760409116744995
1774158606400377600,8.994377685546874,-0.014299076981842518,-0.5740195512771606,-0.2274104654788971
1774158606420371500,9.014371337890625,-0.01407993957400322,-0.4032173156738281,-0.15889966487884521
1774158606440365600,9.034365478515625,-0.07434961199760437,-0.2081204056739807,0.016858231276273727
1774158606460359700,9.054359619140625,-0.20920777320861816,0.10495346039533615,0.13756756484508514
1774158606480353300,9.074353271484375,-0.27648597955703735,0.3923085927963257,0.10913670063018799
1774158606500346400,9.094346435546875,-0.32043126225471497,0.7471693158149719,-0.026446789503097534
1774158606520340500,9.114340576171875,-0.3345692455768585,0.6426159739494324,-0.07484330236911774
1774158606540334300,9.134334228515625,-0.40580543875694275,0.4500013291835785,-0.017705732956528664
1774158606560328400,9.154328369140625,-0.43584224581718445,0.520442545413971,-0.10392468422651291
1774158606580322600,9.174322509765625,-0.5147173404693604,0.5937297940254211,-0.1933830827474594
1774158606600316400,9.19431640625,-0.521434485912323,0.6301276087760925,-0.29754638671875
1774158606620310500,9.214310546875,-0.4909138083457947,0.537930965423584,-0.2665002942085266
1774158606640303400,9.234303466796876,-0.6312059164047241,0.2959909737110138,-0.14078949391841888
1774158606660297500,9.25429736328125,-0.8269681334495544,0.18894346058368683,-0.09432920813560486
1774158606680291300,9.274291259765626,-1.1423910856246948,0.0579327829182148,-0.04178689792752266
1774158606700285400,9.294285400390624,-1.059343695640564,0.10952013731002808,0.006949142552912235
1774158606720279600,9.314279541015624,-0.6321714520454407,0.1671634018421173,-0.02572457306087017
1774158606740273400,9.3342734375,-0.24993525445461273,0.05940379947423935,-0.09210648387670517
1774158606760267500,9.354267578125,-0.12698714435100555,0.022535640746355057,-0.059023141860961914
1774158606780260600,9.374260498046874,-0.2312704473733902,-0.05125715956091881,-0.03481288254261017
1774158606800254500,9.39425439453125,-0.2265346795320511,-0.010001612827181816,-0.08820502460002899
1774158606820248300,9.414248291015625,-0.09665633738040924,-0.036700379103422165,-0.07241616398096085
1774158606840242400,9.434242431640625,-0.0112838726490736,-0.1324838101863861,0.016823817044496536
1774158606860236300,9.454236328125,0.02106574922800064,-0.14461514353752136,-0.18237607181072235
1774158606880230400,9.47423046875,0.11466944962739944,0.028969109058380127,-0.16704626381397247
1774158606900223500,9.494223388671875,0.11471708118915558,-0.1509498506784439,-0.14197421073913574
1774158606920217600,9.514217529296875,0.2049030065536499,0.2639060914516449,-0.32927387952804565
1774158606940211500,9.53421142578125,0.10678320378065109,0.4995713233947754,-0.4024960398674011
1774158606960205600,9.55420556640625,0.3119021952152252,0.4444275200366974,-0.4243701994419098
1774158606980199700,9.57419970703125,0.35533416271209717,0.4360460937023163,-0.4816950559616089
1774158607000193300,9.594193359375,0.21230557560920715,0.17603948712348938,-0.32002130150794983
1774158607020186400,9.614186279296876,-0.11988414824008942,-0.09105361253023148,-0.1381354182958603
1774158607040180500,9.634180419921876,-0.28890112042427063,-0.18113072216510773,-0.050247207283973694
1774158607060174600,9.654174560546876,-0.3083990216255188,-0.19846783578395844,-0.12030220776796341
1774158607080168400,9.67416845703125,-0.20514464378356934,-0.20200204849243164,-0.18403668701648712
1774158607100162600,9.69416259765625,-0.04221222549676895,-0.3500464856624603,-0.042038168758153915
1774158607120156400,9.714156494140624,0.08170145004987717,-0.40377551317214966,0.15511232614517212
1774158607140150500,9.734150634765625,0.16947975754737854,-0.41439276933670044,0.33121880888938904
1774158607160143400,9.754143310546874,0.22486694157123566,-0.33645543456077576,0.3409949839115143
1774158607180137500,9.774137451171875,0.23592731356620789,-0.2662995159626007,0.3084961473941803
1774158607200131300,9.79413134765625,0.21453255414962769,-0.2034001350402832,0.2644585371017456
1774158607220125400,9.81412548828125,0.21772943437099457,-0.17431706190109253,0.22840771079063416
1774158607240119600,9.83411962890625,0.20241177082061768,-0.1331719607114792,0.19357438385486603
1774158607260113400,9.854113525390625,0.11985157430171967,-0.17652089893817902,0.14798477292060852
1774158607280106500,9.8741064453125,0.062329359352588654,-0.14623025059700012,0.08053728193044662
1774158607300100400,9.894100341796875,-0.02486494928598404,-0.08092532306909561,0.008657068014144897
1774158607320094500,9.914094482421875,-0.040625836700201035,-0.099518783390522,-0.0014722717460244894
1774158607340088300,9.93408837890625,-0.09248815476894379,-0.21116526424884796,-0.010033413767814636
1774158607360082200,9.954082275390626,-0.07529787719249725,-0.18594035506248474,-0.11800401657819748
1774158607380076300,9.974076171875,0.0801502913236618,-0.08618904650211334,-0.22944416105747223
1774158607400070100,9.994070068359376,-0.006549052894115448,-0.16551554203033447,-0.07549024373292923
1774158607420063200,10.014063232421876,-0.06758195161819458,-0.409404456615448,0.0516921728849411
1774158607440057300,10.034057373046876,-0.07601506263017654,-0.6810720562934875,-0.056644245982170105
1774158607460051200,10.05405126953125,0.0009822780266404152,-0.6251373887062073,-0.42881226539611816
1774158607480045300,10.07404541015625,0.4023275673389435,-0.8148769736289978,-0.24003516137599945
1774158607500039400,10.094039306640624,0.5826917886734009,-0.9952318668365479,-0.06032968685030937
1774158607520033300,10.114033203125,0.5060593485832214,-0.7391189932823181,-0.27978429198265076
1774158607540026000,10.134026123046874,0.2881873548030853,-0.4031670391559601,-0.5037546157836914
1774158607560020200,10.154020263671875,0.1638459414243698,-0.3179379403591156,-0.636245846748352
1774158607580014300,10.174014404296875,0.2065543383359909,-0.5590158700942993,-0.433152437210083
1774158607600008200,10.19400830078125,0.11157045513391495,-0.6932985782623291,0.16257867217063904
1774158607620002300,10.214002197265625,-0.04084983468055725,-0.7239949107170105,0.6350661516189575
1774158607639996400,10.233996337890625,-0.08904243260622025,-0.6336182951927185,0.560390830039978
1774158607659989200,10.2539892578125,-0.167299285531044,-0.3510710299015045,0.20215484499931335
1774158607679983400,10.2739833984375,-0.33503881096839905,-0.22642186284065247,0.05875825509428978
1774158607699977200,10.293977294921875,-0.5382442474365234,-0.018869880586862564,-0.013634942471981049
1774158607719971000,10.31397119140625,-0.37533503770828247,0.12231524288654327,-0.18745112419128418
1774158607739965200,10.333965087890626,-0.3346034288406372,0.22471147775650024,-0.16390229761600494
1774158607759959300,10.353959228515626,-0.39653268456459045,0.1510988473892212,0.016017964109778404
1774158607779952400,10.373952392578126,-0.43506667017936707,-0.001624752301722765,0.03905629366636276
1774158607799946200,10.3939462890625,-0.3902554512023926,-0.14289364218711853,0.09324268251657486
1774158607819940400,10.4139404296875,-0.3975764811038971,-0.18947681784629822,0.18802385032176971
1774158607839934500,10.4339345703125,-0.47720444202423096,-0.1859547644853592,0.17139340937137604
1774158607859928300,10.45392822265625,-0.4653691053390503,-0.176125630736351,0.1359693706035614
1774158607879922200,10.473922119140624,-0.3234599828720093,-0.2813730835914612,0.16508622467517853
1774158607899915300,10.493915283203124,-0.21719801425933838,-0.3673173189163208,0.1641637682914734
1774158607919909000,10.5139091796875,-0.15775978565216064,-0.34129786491394043,0.06533730030059814
1774158607939903200,10.5339033203125,-0.0912088006734848,-0.2660682201385498,0.08669744431972504
1774158607959897300,10.5538974609375,-0.08763287961483002,-0.22077541053295135,0.16270296275615692
1774158607979891200,10.57389111328125,-0.0789836123585701,-0.00965387374162674,0.1100100502371788
1774158607999885300,10.59388525390625,-0.07212959975004196,-0.018063127994537354,0.23682448267936707
1774158608019878100,10.613878173828125,-0.052983034402132034,-0.15818394720554352,0.37121692299842834
1774158608039872300,10.633872314453125,0.0896642729640007,-0.16979797184467316,0.12844881415367126
1774158608059866000,10.6538662109375,0.10081788152456284,-0.11121901869773865,0.0068810610100626945
1774158608079860200,10.673860107421875,0.2497415840625763,-0.21951410174369812,0.2001013308763504
1774158608099854300,10.693854248046875,0.3723684251308441,-0.11959867924451828,-0.0454234778881073
1774158608119848200,10.71384814453125,0.3774149715900421,0.24998043477535248,-0.3826347589492798
1774158608139842300,10.73384228515625,0.3604828417301178,0.40488818287849426,-0.3138391971588135
1774158608159835400,10.75383544921875,0.38793158531188965,0.44320937991142273,-0.1385834813117981
1774158608179829200,10.773829345703126,0.23850201070308685,0.36920595169067383,-0.10260286927223206
1774158608199823400,10.7938232421875,-0.03070523403584957,0.17005182802677155,-0.02147957682609558
1774158608219817200,10.813817138671874,-0.21368637681007385,-0.017895963042974472,0.10571222752332687
1774158608239811000,10.83381103515625,-0.25058382749557495,-0.24405217170715332,0.18406063318252563
1774158608259805200,10.85380517578125,-0.2549608051776886,-0.16698282957077026,0.14794299006462097
1774158608279798300,10.87379833984375,-0.25174158811569214,-0.15356427431106567,0.1637599766254425
1774158608299792100,10.893792236328125,-0.31337329745292664,-0.17251618206501007,0.23238617181777954
1774158608319786000,10.913785888671875,-0.34104979038238525,-0.0749959871172905,0.26149892807006836
1774158608339780000,10.933780029296875,-0.22675758600234985,0.17964692413806915,0.23460593819618225
1774158608359774200,10.953774169921875,-0.08069773763418198,0.2835026681423187,0.19686919450759888
1774158608379767800,10.973767822265625,0.05890967324376106,0.3530135452747345,0.20719408988952637
1774158608399761000,10.993760986328125,0.16113221645355225,0.354561448097229,0.20228488743305206
1774158608419755000,11.013755126953125,0.2326233834028244,0.32751452922821045,0.251893550157547
1774158608439749000,11.0337490234375,0.10092015564441681,0.27630099654197693,0.2089303582906723
1774158608459743000,11.053742919921875,-0.01020386628806591,0.2389913946390152,0.1211339458823204
1774158608479737000,11.073737060546875,0.04153548181056976,0.1733447164297104,0.0735577940940857
1774158608499731000,11.09373095703125,0.034058570861816406,0.13628531992435455,0.08218652009963989
1774158608519724000,11.11372412109375,-0.05927819386124611,0.26044797897338867,-0.08330436050891876
1774158608539718000,11.1337177734375,-0.07545794546604156,0.31745830178260803,-0.12644639611244202
1774158608559712000,11.1537119140625,0.025730514898896217,0.15212750434875488,-0.14886519312858582
1774158608579705900,11.173705810546876,0.11920683830976486,0.18151743710041046,-0.3684843182563782
1774158608599700000,11.193699951171874,0.07965345680713654,0.06595491617918015,-0.2668513059616089
1774158608619693000,11.213693115234374,0.06539680808782578,0.041989512741565704,-0.09965282678604126
1774158608639687200,11.233687255859374,0.1175503209233284,-0.005136409774422646,-0.13742634654045105
1774158608659681000,11.253680908203124,0.08508625626564026,-0.297270268201828,-0.33681267499923706
1774158608679675100,11.273675048828125,0.29695531725883484,-0.5580199360847473,-0.22869116067886353
1774158608699669200,11.293669189453125,0.5080507397651672,-0.35234856605529785,-0.2810719609260559
1774158608719662800,11.313662841796875,0.42134010791778564,-0.06053933873772621,-0.3422197103500366
1774158608739656000,11.333656005859375,0.1462136059999466,0.15276497602462769,-0.4265781044960022
1774158608759650000,11.353650146484375,-0.008129030466079712,0.08139770478010178,-0.4325343072414398
1774158608779644000,11.373643798828125,-0.03069893829524517,0.004497828893363476,-0.49056872725486755
1774158608799638000,11.393637939453125,-0.006651194766163826,0.08824585378170013,-0.37310975790023804
1774158608819632000,11.413632080078125,-0.027565136551856995,0.16264763474464417,-0.0921524241566658
1774158608839626000,11.4336259765625,-0.06573442369699478,0.18985864520072937,-0.012805894017219543
1774158608859618800,11.453618896484375,-0.17214594781398773,0.19444139301776886,0.003575662150979042
1774158608879613000,11.473613037109375,-0.1002134159207344,0.18133975565433502,-0.027702149003744125
1774158608899607000,11.49360693359375,-0.20766454935073853,0.41757696866989136,-0.00027463398873806
1774158608919601000,11.513600830078126,-0.4137146472930908,0.36763256788253784,-0.06886807829141617
1774158608939595000,11.533594970703126,-0.30707883834838867,0.36470961570739746,-0.12267454713582993
1774158608959589000,11.553589111328124,-0.18554721772670746,0.32719898223876953,-0.31014150381088257
1774158608979582000,11.57358203125,-0.2907426953315735,0.2916423976421356,-0.21634382009506226
1774158608999576000,11.593576171875,-0.34381571412086487,0.07869777083396912,0.07561374455690384
1774158609019570200,11.613570068359374,-0.33883705735206604,-0.06357041746377945,0.20053045451641083
1774158609039563800,11.633563720703124,-0.3272274136543274,-0.1827591359615326,0.2563915252685547
1774158609059558000,11.653557861328125,-0.28055712580680847,-0.2741665542125702,0.31693682074546814
1774158609079552000,11.673552001953125,-0.2713654637336731,-0.3347773849964142,0.25457414984703064
1774158609099545000,11.693545166015625,-0.28255152702331543,-0.3056909143924713,0.1794251948595047
1774158609119539000,11.7135390625,-0.24364662170410156,-0.30431219935417175,0.12052079290151596
1774158609139533000,11.733532958984375,-0.20280411839485168,-0.21083682775497437,0.03765573725104332
1774158609159527200,11.753527099609375,-0.17420364916324615,0.039003852754831314,-0.20961733162403107
1774158609179521000,11.77352099609375,-0.1755707710981369,-0.23874279856681824,0.03769666701555252
1774158609199515100,11.79351513671875,-0.07210897654294968,-0.1879403442144394,-0.05670315399765968
1774158609219508000,11.813508056640625,-0.04599461704492569,-0.04591996595263481,-0.23349417746067047
1774158609239502000,11.833502197265625,-0.06649645417928696,-0.12188562005758286,-0.08614750951528549
1774158609259496000,11.853495849609375,0.08147738128900528,-0.3025314211845398,-0.15910227596759796
1774158609279490000,11.873489990234376,0.2402629852294922,-0.23388664424419403,-0.38472408056259155
1774158609299484700,11.893484619140626,0.3801899254322052,-0.16656579077243805,-0.39193639159202576
1774158609319477800,11.913477783203126,0.3563961982727051,-0.11265192925930023,-0.4053120017051697
1774158609339472000,11.933471923828124,0.32038813829421997,0.06537426263093948,-0.309979110956192
1774158609359465700,11.9534658203125,0.2525922358036041,0.1478109061717987,-0.10408199578523636
1774158609379459800,11.9734599609375,0.07616044580936432,0.0518510565161705,-0.04812488704919815
1774158609399454000,11.993453857421875,-0.07630240172147751,-0.17705896496772766,-0.16206291317939758
1774158609419447800,12.01344775390625,-0.15734149515628815,-0.406404584646225,-0.08169855177402496
1774158609439440600,12.033440673828125,-0.10826028883457184,-0.6521316766738892,0.35651421546936035
1774158609459434800,12.053434814453125,-0.01929425075650215,-0.8059015870094299,0.7850427627563477
1774158609479428900,12.073428955078125,0.1454152911901474,-0.6691880822181702,0.7474985122680664
1774158609499422700,12.093422607421875,0.1795903742313385,-0.5023548007011414,0.6976829767227173
1774158609519416800,12.113416748046875,0.20276078581809998,-0.3353002667427063,0.7579976320266724
1774158609539410000,12.133409912109375,0.18513283133506775,0.08168505877256393,0.9140384793281555
1774158609559403800,12.15340380859375,0.18133527040481567,0.0451139435172081,1.0669233798980713
1774158609579398000,12.17339794921875,0.21212390065193176,-0.18485169112682343,1.101767897605896
1774158609599392000,12.19339208984375,0.3029959201812744,-0.6145324110984802,0.9756158590316772
1774158609619385900,12.2133857421875,0.2870717942714691,-0.7783676981925964,0.9692872762680054
1774158609639379700,12.233379638671876,0.14295640587806702,-0.6743194460868835,0.9535083174705505
1774158609659372800,12.253372802734376,0.020402364432811737,-0.43431219458580017,0.9369722008705139
1774158609679367000,12.273366943359376,0.03683280199766159,-0.21621063351631165,0.7279542684555054
1774158609699360800,12.29336083984375,0.20424360036849976,-0.08231095969676971,0.20211201906204224
1774158609719355000,12.31335498046875,0.23829105496406555,0.3902725875377655,-0.06933562457561493
1774158609739349000,12.333348876953124,0.2373119592666626,0.3970351815223694,0.09438713639974594
1774158609759342800,12.3533427734375,0.2506764233112335,-0.12057669460773468,0.40606582164764404
1774158609779335700,12.373335693359374,0.18168137967586517,-0.3101397156715393,0.47716236114501953
1774158609799329800,12.393329833984374,0.05012219399213791,0.04660838097333908,0.19778400659561157
1774158609819324000,12.413323974609375,0.08820358663797379,0.15199588239192963,-0.015004045329988003
1774158609839317800,12.43331787109375,0.2684668302536011,-0.3994704484939575,0.057042501866817474
1774158609859311900,12.453311767578125,0.47479140758514404,-0.7596908807754517,0.15316753089427948
1774158609879305000,12.473304931640625,0.7773016691207886,-0.4222557246685028,0.15596143901348114
1774158609899298800,12.493298828125,0.8123213052749634,-0.20573274791240692,0.00936930626630783
1774158609919293000,12.51329296875,0.5944638848304749,-0.13672904670238495,-0.24304619431495667
1774158609939287000,12.533287109375,0.4421098232269287,0.07024099677801132,-0.5191245675086975
1774158609959280600,12.55328076171875,0.25436508655548096,0.3095795810222626,-0.7642199993133545
1774158609979274800,12.573274658203125,0.04181482642889023,0.415381520986557,-0.7117931246757507
1774158609999267800,12.593267822265625,-0.19416166841983795,0.399533212184906,-0.558040201663971
1774158610019262000,12.613261962890626,-0.36545878648757935,0.7082070708274841,-0.4457590878009796
1774158610039255800,12.633255859375,-0.44124582409858704,1.4678877592086792,-0.3522951304912567
1774158610059250000,12.65325,-0.44193607568740845,1.7751154899597168,-0.14508692920207977
1774158610079243800,12.673243896484376,-0.43422001600265503,1.6848955154418945,0.17178969085216522
1774158610099238000,12.69323779296875,-0.43712207674980164,1.433129072189331,0.416913777589798
1774158610119230700,12.713230712890624,-0.4396457374095917,1.082969307899475,0.45521488785743713
1774158610139224800,12.733224853515624,-0.4426195025444031,1.0029902458190918,0.43185678124427795
1774158610159218700,12.75321875,-0.5491227507591248,0.743786633014679,0.23380020260810852
1774158610179212800,12.773212890625,-0.7104641199111938,0.49992287158966064,-0.11525166779756546
1774158610199207000,12.79320703125,-0.7067367434501648,0.9512593746185303,-0.24058151245117188
1774158610219200800,12.81320068359375,-0.6463059782981873,1.0875260829925537,-0.2881779372692108
1774158610239193900,12.83319384765625,-0.5556991100311279,0.8778759241104126,-0.179839089512825
1774158610259188000,12.85318798828125,-0.4807731509208679,0.4950758218765259,0.03137419372797012
1774158610279182000,12.87318212890625,-0.4379594027996063,0.32386907935142517,0.17527799308300018
1774158610299174700,12.893174560546875,-0.34490668773651123,0.39970579743385315,0.12016653269529343
1774158610319168500,12.91316845703125,-0.231918603181839,0.36009320616722107,-0.0347261056303978
1774158610339161300,12.933161376953125,-0.1396975964307785,0.20558807253837585,-0.16265185177326202
1774158610359155500,12.953155517578125,-0.10932496190071106,0.09054286032915115,-0.14976628124713898
1774158610379149300,12.9731494140625,-0.07839467376470566,-0.08669009804725647,0.10375068336725235
1774158610399143400,12.993143310546875,0.013891063630580902,-0.33600562810897827,0.2670883238315582
1774158610419137500,13.013137451171875,0.2574492394924164,-0.6120215654373169,-0.07601085305213928
1774158610439131400,13.03313134765625,0.5461164712905884,-0.42487818002700806,-0.42920172214508057
1774158610459124500,13.05312451171875,0.6010633707046509,-0.1557774841785431,-0.46918678283691406
1774158610479118600,13.07311865234375,0.5444613695144653,-0.27403879165649414,-0.3549366891384125
1774158610499112400,13.093112548828126,0.41989076137542725,-0.28470781445503235,-0.2109879106283188
1774158610519106300,13.113106201171876,0.22768868505954742,-0.21136116981506348,-0.023360369727015495
1774158610539100400,13.133100341796874,0.09011907875537872,-0.12049606442451477,0.16254131495952606
1774158610559094500,13.153094482421874,0.03007487580180168,0.012096242979168892,0.2017621546983719
1774158610579087600,13.173087646484374,0.08354416489601135,0.20303545892238617,0.15015679597854614
1774158610599081500,13.19308154296875,0.13422563672065735,0.004463613033294678,0.09223531931638718
1774158610619075600,13.21307568359375,0.11046095192432404,-0.271437406539917,0.08084019273519516
1774158610639069400,13.2330693359375,0.1429273784160614,-0.2843516767024994,0.0552879273891449
1774158610659063600,13.2530634765625,0.15666967630386353,-0.2732958495616913,0.06867001205682755
1774158610679056400,13.273056396484375,0.16441383957862854,-0.11602643132209778,0.1140114963054657
1774158610699050500,13.293050537109375,0.15870249271392822,0.014906715601682663,0.06695569306612015
1774158610719044400,13.31304443359375,0.12719318270683289,0.07677274942398071,0.04272846505045891
1774158610739038500,13.33303857421875,0.11062919348478317,0.03873629495501518,0.10158167779445648
1774158610759032600,13.353032470703125,0.10269264876842499,0.05168633162975311,0.15829911828041077
1774158610779026400,13.3730263671875,0.09477762877941132,0.1557120978832245,0.06341668218374252
1774158610799019500,13.39301953125,0.07188909500837326,0.3138836622238159,0.012225771322846413
1774158610819013400,13.413013427734375,0.030602173879742622,0.37253832817077637,0.06115386262536049
1774158610839007500,13.433007568359375,0.016742687672376633,0.34543055295944214,0.11821983754634857
1774158610859001300,13.45300146484375,0.03040223941206932,0.2803904116153717,0.06673399358987808
1774158610878995500,13.472995361328126,0.038811687380075455,0.26479384303092957,0.023815710097551346
1774158610898989300,13.4929892578125,0.022492922842502594,0.2561207711696625,0.07983999699354172
1774158610918982400,13.512982421875,0.053579386323690414,0.21876151859760284,0.12164085358381271
1774158610938976500,13.5329765625,0.08737234026193619,0.12935538589954376,0.17503054440021515
1774158610958970600,13.552970703125,0.1042131781578064,-0.06281042844057083,0.12322573363780975
1774158610978964500,13.572964599609374,0.25352582335472107,-0.5084467530250549,-0.3363327085971832
1774158610998958600,13.59295849609375,0.5279809236526489,-0.5327135920524597,-0.2961588203907013
1774158611018951400,13.612951416015624,0.6136360168457031,-0.27406612038612366,-0.18713416159152985
1774158611038945500,13.632945556640625,0.3760650157928467,-0.18686935305595398,-0.06721967458724976
1774158611058939400,13.652939453125,0.16127176582813263,-0.20632053911685944,-0.0004930479917675257
1774158611078933500,13.67293359375,-0.04441065713763237,-0.10157007724046707,-0.2365044802427292
1774158611098927600,13.692927734375,-0.13645035028457642,0.2065194845199585,-0.37716448307037354
1774158611118921500,13.71292138671875,-0.1502469778060913,0.5089786648750305,-0.3921172618865967
1774158611138914600,13.73291455078125,-0.15754984319210052,0.7871304750442505,-0.18405669927597046
1774158611158908400,13.752908447265625,-0.06712741404771805,0.46414151787757874,0.0005994155071675777
1774158611178902300,13.77290234375,-0.04633110761642456,0.3529185354709625,0.13289394974708557
1774158611198896400,13.792896484375,-0.09478006511926651,0.3941584527492523,0.00817142240703106
1774158611218890500,13.812890380859375,-0.20394819974899292,0.5352770090103149,-0.07186084985733032
1774158611238883600,13.832883544921875,-0.2838752865791321,0.4268956184387207,0.017607931047677994
1774158611258877400,13.85287744140625,-0.2610448896884918,0.20825232565402985,0.048909272998571396
1774158611278871600,13.87287158203125,-0.2550606429576874,0.11672215163707733,0.05769698694348335
1774158611298866000,13.892865966796874,-0.25510966777801514,0.010550128296017647,0.09646067023277283
1774158611318860000,13.912860107421874,-0.2771901786327362,0.023272894322872162,0.06303050369024277
1774158611338854100,13.932854248046874,-0.27216973900794983,0.0769244134426117,0.049782633781433105
1774158611358847200,13.95284716796875,-0.26917460560798645,0.014142467640340328,0.15413467586040497
1774158611378841000,13.972841064453124,-0.22476665675640106,-0.00640164315700531,0.22750408947467804
1774158611398835200,13.992835205078125,-0.16701699793338776,-0.09902435541152954,0.1487763673067093
1774158611418829300,14.012829345703125,-0.1184496358036995,-0.03208722174167633,0.0036409772001206875
1774158611438823000,14.032822998046875,-0.10902100801467896,-0.050213538110256195,-0.03443951532244682
1774158611458817000,14.052817138671875,-0.08282377570867538,-0.05349460244178772,-0.059174053370952606
1774158611478810000,14.07281005859375,-0.04985864832997322,-0.24450692534446716,-0.008825505152344704
1774158611498804000,14.092803955078125,0.016264937818050385,-0.34866511821746826,0.009327870793640614
1774158611518798000,14.112798095703125,0.12623231112957,-0.2706379294395447,-0.12219922989606857
1774158611538792200,14.132792236328125,0.24810472130775452,-0.40799519419670105,-0.17919759452342987
1774158611558786000,14.1527861328125,0.38603249192237854,-0.5447230339050293,-0.17209988832473755
1774158611578779000,14.17277880859375,0.39444613456726074,-0.37746867537498474,-0.15477222204208374
1774158611598773000,14.19277294921875,0.24730895459651947,-0.35146835446357727,-0.08313412219285965
1774158611618767000,14.21276708984375,0.1340516209602356,-0.22949211299419403,0.046594731509685516
1774158611638761000,14.232760986328126,0.032533273100852966,-0.40766528248786926,0.16198094189167023
1774158611658755000,14.252755126953126,-0.008161671459674835,-0.4634864330291748,0.19822990894317627
1774158611678749200,14.272749267578124,-0.05083572119474411,-0.2781881093978882,0.18634511530399323
1774158611698742300,14.2927421875,-0.10199540853500366,0.03263373300433159,0.2069007009267807
1774158611718736100,14.312736083984374,-0.10566462576389313,-0.10267064720392227,0.236923485994339
1774158611738730200,14.332730224609374,0.00010254746302962303,-0.40003201365470886,0.1697058379650116
1774158611758724000,14.35272412109375,0.13373245298862457,-0.5902236700057983,0.01000218279659748
1774158611778718000,14.372718017578125,0.13801321387290955,-0.35941067337989807,0.006934276781976223
1774158611798711000,14.3927109375,0.06211273744702339,-0.08072629570960999,0.12124734371900558
1774158611818705200,14.412705078125,-0.03431491553783417,0.11944476515054703,0.14687666296958923
1774158611838699000,14.432698974609375,-0.10051395744085312,0.35787802934646606,0.040115486830472946
1774158611858693000,14.452693115234375,-0.11743777990341187,0.6634949445724487,-0.020939871668815613
1774158611878687200,14.472687255859375,-0.08392266184091568,0.5971701145172119,0.04045611619949341
1774158611898681000,14.49268115234375,-0.12495677173137665,0.34745296835899353,0.1159808412194252
1774158611918674000,14.512673828125,-0.07728122174739838,0.1848899871110916,0.1917097270488739
1774158611938668000,14.53266796875,-0.03080037236213684,0.21239463984966278,0.1546265184879303
1774158611958662100,14.552662109375,-0.011159858666360378,0.3143787086009979,0.08951541781425476
1774158611978656000,14.572656005859375,0.04010322690010071,0.3412919044494629,0.05655212327837944
1774158611998650000,14.592650146484376,0.028231652453541756,0.3338342607021332,0.04668164998292923
1774158612018643200,14.612643310546876,0.027286512777209282,0.1017347127199173,-0.050512172281742096
1774158612038637000,14.632636962890626,-0.010032959282398224,-0.07717656344175339,-0.04730754718184471
1774158612058631200,14.652631103515626,0.07778193056583405,-0.08085475862026215,0.014222515746951103
1774158612078625300,14.672625244140624,0.09703042358160019,-0.08811700344085693,0.1362679898738861
1774158612098619000,14.692618896484374,0.20460064709186554,-0.5285221934318542,-0.14762356877326965
1774158612118613000,14.712613037109374,0.5692093372344971,-0.7977814078330994,-0.5710186958312988
1774158612138606000,14.732606201171874,0.791111409664154,-0.40657901763916016,-0.6435176730155945
1774158612158600200,14.75260009765625,0.6551104187965393,-0.21743308007717133,-0.5581652522087097
1774158612178594000,14.772593994140625,0.3351578116416931,-0.45519137382507324,-0.23605848848819733
1774158612198588200,14.792588134765625,0.03927932679653168,-0.08918609470129013,-0.09603916108608246
1774158612218582300,14.812582275390625,-0.22839057445526123,0.21375302970409393,-0.23536495864391327
1774158612238575000,14.8325751953125,-0.33838194608688354,0.5408949255943298,-0.3429561257362366
1774158612258569000,14.85256884765625,-0.2739046514034271,0.930147647857666,-0.34369683265686035
1774158612278563000,14.87256298828125,-0.16280700266361237,1.0342695713043213,-0.1978205144405365
1774158612298556400,14.892556396484375,-0.16755494475364685,0.4999554753303528,0.048155590891838074
1774158612318550300,14.91255029296875,-0.153810054063797,0.12715855240821838,0.309428870677948
1774158612338544400,14.93254443359375,-0.20795826613903046,0.2386815845966339,0.4198918044567108
1774158612358537500,14.952537353515625,-0.21662850677967072,0.39746153354644775,0.46969056129455566
1774158612378531300,14.97253125,-0.2644962668418884,0.5445958971977234,0.4611130356788635
1774158612398525400,14.992525390625,-0.2556625306606293,0.17689867317676544,0.2531236708164215
1774158612418519600,15.01251953125,-0.2801714837551117,0.09355150163173676,-0.06101670116186142
1774158612438513200,15.03251318359375,-0.3060417175292969,0.32552698254585266,-0.11072988063097
1774158612458506200,15.05250634765625,-0.2679365873336792,0.2986488938331604,-0.027386870235204697
1774158612478500400,15.072500244140626,-0.2263731211423874,0.21054016053676605,0.18607428669929504
1774158612498494500,15.092494384765626,-0.18011102080345154,-0.1365033984184265,0.37006863951683044
1774158612518488300,15.11248828125,-0.1098579540848732,-0.25554656982421875,0.31019920110702515
1774158612538482400,15.132482421875,-0.1202295571565628,-0.18965846300125122,0.17178340256214142
1774158612558476500,15.1524765625,-0.09176920354366302,-0.08335930109024048,0.040405772626399994
1774158612578469400,15.172469482421874,0.018282903358340263,-0.09325125813484192,-0.05802302807569504
1774158612598463200,15.192463134765624,0.1301611214876175,-0.10779181867837906,-0.06798790395259857
1774158612618457300,15.212457275390625,0.15938737988471985,-0.07232984155416489,0.07716900110244751
1774158612638451500,15.232451416015625,0.18334729969501495,0.08273135870695114,0.12979668378829956
1774158612658445300,15.2524453125,0.28280749917030334,0.10615503042936325,0.0075753661803901196
1774158612678438400,15.2724384765625,0.4293016195297241,-0.15888966619968414,-0.17590971291065216
1774158612698432500,15.2924326171875,0.6076000332832336,-0.20974047482013702,-0.3454175591468811
1774158612718426400,15.31242626953125,0.5505386590957642,0.2553706765174866,-0.4670428931713104
1774158612738420500,15.33242041015625,0.40762004256248474,0.444374680519104,-0.4769757091999054
1774158612758414600,15.35241455078125,0.32739636301994324,0.3842875361442566,-0.4789290130138397
1774158612778408200,15.372408203125,0.3816479444503784,-0.03500126302242279,-0.20128796994686127
1774158612798401300,15.3924013671875,0.27106842398643494,-0.03733126074075699,0.0733550488948822
1774158612818395400,15.4123955078125,0.03243347257375717,0.22751370072364807,0.258629709482193
1774158612838389500,15.432389404296876,-0.08052750676870346,0.21030446887016296,0.46977099776268005
1774158612858383400,15.45238330078125,-0.1096835732460022,-0.33171600103378296,0.725604772567749
1774158612878377500,15.47237744140625,-0.12778599560260773,-1.147701621055603,0.7863810658454895
1774158612898370600,15.49237060546875,-0.0979037657380104,-1.635287880897522,0.5798431038856506
1774158612918364200,15.5123642578125,-0.11745326966047287,-0.8558049201965332,0.4184648096561432
1774158612938358300,15.532358154296874,-0.16214488446712494,-0.6304227113723755,0.4042717516422272
1774158612958352400,15.552352294921874,-0.1719699651002884,-0.6755337715148926,0.40305349230766296
1774158612978346200,15.57234619140625,-0.10951218008995056,-0.7270286679267883,0.4714735150337219
1774158612998340400,15.59234033203125,-0.038914162665605545,-0.6440469622612,0.39166298508644104
1774158613018333400,15.61233349609375,-0.06587091833353043,-0.15395896136760712,0.2810794413089752
1774158613038327600,15.63232763671875,-0.11071088910102844,0.20797276496887207,0.17738556861877441
1774158613058321400,15.6523212890625,-0.150059312582016,0.17380182445049286,0.11523965746164322
1774158613078315500,15.6723154296875,-0.2562513053417206,0.3170801103115082,0.13321684300899506
1774158613098309400,15.692309326171875,-0.3735559284687042,0.05662063509225845,0.2247990518808365
1774158613118302500,15.712302490234375,-0.3094042241573334,0.21211488544940948,0.1188163310289383
1774158613138296300,15.73229638671875,-0.18294192850589752,0.16522853076457977,0.12633953988552094
1774158613158290400,15.75229052734375,-0.0931151732802391,0.36445868015289307,0.048520900309085846
1774158613178284300,15.7722841796875,-0.0025635771453380585,0.22686031460762024,0.056365158408880234
1774158613198278400,15.7922783203125,0.05894448235630989,0.1223287582397461,0.04867522045969963
1774158613218272500,15.8122724609375,0.1239415854215622,-0.037736572325229645,-0.024481922388076782
1774158613238265300,15.832265380859376,0.2918474078178406,-0.3528856337070465,-0.21677272021770477
1774158613258259200,15.85225927734375,0.4485763907432556,-0.7261825799942017,-0.30784502625465393
1774158613278253300,15.87225341796875,0.5174294114112854,-0.7999144792556763,-0.1624622792005539
1774158613298247700,15.89224755859375,0.40748849511146545,-0.3327540159225464,-0.39311903715133667
1774158613318241300,15.9122412109375,0.25787153840065,-0.48513880372047424,-0.24542604386806488
1774158613338234400,15.932234375,0.10922744125127792,-0.2809162735939026,-0.1937227100133896
1774158613358228500,15.952228515625,-0.059906452894210815,-0.1808924525976181,-0.08225417137145996
1774158613378222600,15.97222265625,-0.1624208688735962,-0.17601598799228668,0.16490538418293
1774158613398216400,15.992216552734375,-0.15735802054405212,-0.026588069275021553,0.17507635056972504
1774158613418210600,16.01221044921875,-0.13216061890125275,0.02248288504779339,0.12400121986865997
1774158613438204400,16.032204345703125,-0.07464171200990677,0.21804003417491913,0.04227987304329872
1774158613458197200,16.052197265625,-0.08052056282758713,0.2691284120082855,-0.033162087202072144
1774158613478191400,16.07219140625,-0.047171156853437424,0.35310980677604675,-0.13056795299053192
1774158613498185500,16.092185546875,-0.027025939896702766,0.5763522386550903,-0.2610926628112793
1774158613518179300,16.112179443359373,0.08430027961730957,0.9934529662132263,-0.4520200192928314
1774158613538173400,16.13217333984375,0.06913850456476212,1.171618938446045,-0.507005512714386
1774158613558166500,16.15216650390625,-0.056672655045986176,0.5883774161338806,-0.24198317527770996
1774158613578160600,16.17216064453125,0.09701929986476898,0.609196662902832,-0.23877868056297302
1774158613598154500,16.192154541015626,0.04060976207256317,0.4165293872356415,-0.16375309228897095
1774158613618148600,16.212148681640624,-0.2590195834636688,-0.027174822986125946,0.0263337641954422
1774158613638142500,16.232142578125,-0.4871997535228729,0.3687666058540344,-0.13754449784755707
1774158613658136300,16.25213623046875,-0.4669312834739685,0.2871374785900116,0.03981051966547966
1774158613678129400,16.27212939453125,-0.2508780062198639,-0.19338135421276093,0.04900430142879486
1774158613698123500,16.29212353515625,-0.1168546974658966,-0.3376179039478302,0.10440512746572495
1774158613718117400,16.312117431640626,-0.033339813351631165,-0.4477941691875458,0.14621426165103912
1774158613738111500,16.332111572265624,-0.017942197620868683,-0.5108389258384705,0.10051878541707993
1774158613758105600,16.352105712890626,-0.04454467073082924,-0.620714545249939,0.03391799330711365
1774158613778098700,16.3720986328125,-0.1127077266573906,-0.4706912338733673,-0.0009053333196789026
1774158613798092300,16.39209228515625,-0.03297659754753113,-0.12537865340709686,-0.16730377078056335
1774158613818086400,16.41208642578125,0.16768883168697357,0.020081281661987305,-0.2833864092826843
1774158613838080500,16.43208056640625,0.3436209261417389,0.15828511118888855,-0.3766326308250427
1774158613858074400,16.452074462890625,0.5123685002326965,0.126756951212883,-0.49650412797927856
1774158613878068500,16.472068359375,0.5727157592773438,0.3123260736465454,-0.5443748235702515
1774158613898061600,16.4920615234375,0.46523523330688477,0.4698579013347626,-0.4319920241832733
1774158613918055400,16.512055419921875,0.3860170841217041,0.5556070804595947,-0.19019989669322968
1774158613938049500,16.532049560546874,0.49682044982910156,0.3674212694168091,-0.06860184669494629
1774158613958043600,16.552043701171876,0.18897466361522675,0.31732115149497986,-0.029370522126555443
1774158613978037200,16.572037353515626,0.06150343269109726,0.15112455189228058,0.04765164479613304
1774158613998030300,16.5920302734375,-0.012998239137232304,-0.11911119520664215,0.21804755926132202
1774158614018024400,16.6120244140625,0.06456118077039719,-0.47401776909828186,0.3458986282348633
1774158614038018600,16.6320185546875,0.21335680782794952,-0.6820711493492126,0.259257048368454
1774158614058012400,16.652012451171874,0.26461490988731384,-0.5805788636207581,0.17156782746315002
1774158614078006500,16.672006591796876,0.18476977944374084,-0.18153181672096252,0.07811444252729416
1774158614098000600,16.692000732421874,0.1389368623495102,0.0938408151268959,0.11148114502429962
1774158614117993500,16.711993408203124,0.16482560336589813,0.21430811285972595,0.1416790932416916
1774158614137987300,16.7319873046875,0.13792675733566284,0.30123424530029297,0.09265042841434479
1774158614157981400,16.7519814453125,0.1320294290781021,0.1656806766986847,0.07028242200613022
1774158614177975300,16.771975341796875,0.17679212987422943,0.16633078455924988,0.17852778732776642
1774158614197969400,16.791969482421877,0.0703737810254097,0.38982054591178894,0.09562575072050095
1774158614217962500,16.81196240234375,0.07105474919080734,0.42015156149864197,-0.20083360373973846
1774158614237956600,16.83195654296875,0.019902247935533524,0.46313929557800293,-0.26459717750549316
1774158614257950500,16.851950439453127,-0.011867377907037735,0.5469330549240112,-0.3607512414455414
1774158614277944600,16.871944580078125,-0.0046888962388038635,0.6226638555526733,-0.672978937625885
1774158614297939000,16.89193896484375,0.06284992396831512,0.3149094879627228,-0.5849570035934448
1774158614317932500,16.9119326171875,0.1627887636423111,0.6181665658950806,-0.29627174139022827
1774158614337925600,16.931925537109375,0.22780418395996094,0.9240887761116028,-0.2856520712375641
1774158614357919700,16.951919677734374,0.2548249363899231,0.7966055274009705,-0.40377235412597656
1774158614377913600,16.97191357421875,0.23894692957401276,0.07463297247886658,-0.4461016058921814
1774158614397907700,16.99190771484375,0.23026420176029205,-0.5697833299636841,-0.31843462586402893
1774158614417901800,17.01190185546875,0.37082546949386597,-1.1437124013900757,0.24918913841247559
1774158614437895000,17.03189501953125,0.7086403369903564,-0.01126781851053238,-0.5880886316299438
1774158614457888500,17.051888427734376,0.6403300166130066,0.1131417453289032,-1.0711756944656372
1774158614477882600,17.071882568359374,0.369415283203125,0.6808869242668152,-0.712128221988678
1774158614497876700,17.091876708984376,0.004936928860843182,0.8436547517776489,-0.1151665449142456
1774158614517870600,17.11187060546875,-0.19350284337997437,0.5193434357643127,0.36051708459854126
1774158614537863700,17.13186376953125,-0.2690984904766083,0.6091405153274536,0.41909730434417725
1774158614557857800,17.15185791015625,-0.2504655122756958,0.6395746469497681,0.32145488262176514
1774158614577851600,17.1718515625,0.051446229219436646,0.3448883593082428,0.27909013628959656
1774158614597845800,17.191845703125,-0.056001290678977966,0.168929785490036,0.1398169994354248
1774158614617839900,17.21183984375,-0.16920898854732513,-0.2682364284992218,0.20339296758174896
1774158614637833700,17.231833740234375,-0.2753932774066925,-0.614524245262146,0.4704589545726776
1774158614657826600,17.25182666015625,-0.09116315096616745,-0.2977961301803589,0.6220251321792603
1774158614677820700,17.271820556640623,-0.19562548398971558,0.3086986243724823,0.41995877027511597
1774158614697814800,17.291814697265625,-0.39971455931663513,0.39653927087783813,0.31051239371299744
1774158614717808600,17.31180859375,-0.4764365553855896,0.2560090124607086,0.2815025746822357
1774158614737802800,17.331802734375,-0.4574766159057617,0.21482045948505402,0.2899008095264435
1774158614757795800,17.3517958984375,-0.3418475091457367,-0.030026569962501526,0.23253419995307922
1774158614777790000,17.3717900390625,-0.2867896854877472,-0.24141496419906616,0.23150891065597534
1774158614797783600,17.391783447265624,-0.21713395416736603,-0.2476780265569687,0.30159327387809753
1774158614817777700,17.411777587890626,-0.21383343636989594,-0.09134210646152496,0.28167518973350525
1774158614837771800,17.431771728515624,-0.21560122072696686,0.3353627026081085,0.0009322757832705975
1774158614857764600,17.4517646484375,-0.17856401205062866,0.37258535623550415,-0.24999532103538513
1774158614877758700,17.4717587890625,-0.10379479080438614,0.055593341588974,-0.24260453879833221
1774158614897752800,17.4917529296875,-0.04469355568289757,-0.18653012812137604,-0.000024366658180952072
1774158614917746700,17.51174658203125,-0.006726152263581753,-0.011450905352830887,-0.233655646443367
1774158614937740800,17.53174072265625,-0.06468936800956726,-1.0652737617492676,0.06812592595815659
1774158614957735000,17.55173486328125,-0.05684390664100647,-1.0225250720977783,0.2023526132106781
1774158614977727700,17.571727783203126,0.22440803050994873,-0.812774658203125,-0.0805848091840744
1774158614997721600,17.5917216796875,0.3800831139087677,-0.33397534489631653,-0.4832755923271179
1774158615017715700,17.6117158203125,0.4484206736087799,-0.2549171447753906,-0.4279518723487854
1774158615037709800,17.631709716796873,0.5561341643333435,0.12337887287139893,-0.4547174870967865
1774158615057703700,17.65170361328125,0.334131121635437,0.2686285674571991,-0.4540667235851288
1774158615077696800,17.67169677734375,-0.009947395883500576,0.20337721705436707,-0.4715873897075653
1774158615097691000,17.69169091796875,0.022844359278678894,-0.6277676820755005,-0.15805354714393616
1774158615117684500,17.7116845703125,-0.08697822690010071,-0.8635523915290833,0.002228176686912775
1774158615137678600,17.7316787109375,0.20694388449192047,-0.6060576438903809,-0.03472213074564934
1774158615157672700,17.751672607421874,-0.027267953380942345,0.04367670789361,0.0004981984384357929
1774158615177665800,17.771665771484376,-0.19981376826763153,1.0432499647140503,0.38173308968544006
1774158615197659600,17.79165966796875,-0.15714624524116516,2.1988260746002197,0.46637600660324097
1774158615217653800,17.81165380859375,-0.09086239337921143,0.26800885796546936,0.42070436477661133
1774158615237648000,17.83164794921875,0.05215955525636673,-1.856276512145996,-0.0783684253692627
1774158615257641700,17.851641845703124,0.2629535496234894,0.8599090576171875,-0.020615113899111748
1774158615277634600,17.871634521484374,0.3565994203090668,0.769632875919342,0.09860407561063766
1774158615297629200,17.891629150390624,0.3903924226760864,-0.9567732810974121,0.7069006562232971
1774158615317622800,17.911622802734374,0.3826097249984741,-0.501991331577301,0.8459841012954712
1774158615337617000,17.931616943359376,0.10820497572422028,0.44573530554771423,0.34478330612182617
1774158615357611000,17.951611083984375,-0.02264394797384739,0.7851907014846802,-0.10572843253612518
1774158615377604900,17.97160498046875,-0.031042397022247314,0.6656298637390137,-0.5305466055870056
1774158615397598000,17.991597900390627,-0.003066470380872488,0.7391777634620667,-0.6345231533050537
1774158615417592000,18.011592041015625,-0.018345866352319717,0.3011949956417084,-0.17596659064292908
1774158615437586200,18.031586181640623,-0.0844012051820755,-0.3434852361679077,0.2542106807231903
1774158615457580000,18.051580078125,-0.021243596449494362,0.13850899040699005,-0.046329326927661896
1774158615477574100,18.07157421875,0.14636220037937164,0.03384546935558319,-0.3582678735256195
1774158615497567000,18.09156689453125,0.08815412223339081,0.23883850872516632,-0.0956660658121109
1774158615517560800,18.111560791015624,0.058025047183036804,0.35073399543762207,-0.13162358105182648
1774158615537555000,18.131554931640625,0.07404854893684387,-0.20103661715984344,-0.3813242018222809
1774158615557549000,18.151549072265624,0.0992383062839508,-0.613364040851593,-0.5445303916931152
1774158615577543000,18.17154296875,0.30344483256340027,-0.17834730446338654,-0.5657066702842712
1774158615597536000,18.191535888671876,0.5246841907501221,0.09060142934322357,-0.5598630905151367
1774158615617530000,18.211530029296874,0.47284820675849915,0.2930360436439514,-0.37835121154785156
1774158615637524200,18.231524169921876,0.1604432314634323,0.18490441143512726,-0.10214000195264816
1774158615657517800,18.251517822265626,-0.10579583048820496,-0.042094215750694275,0.0566076897084713
1774158615677512000,18.271511962890624,-0.16855092346668243,-0.0426347590982914,0.049636103212833405
1774158615697505000,18.291505126953126,-0.0799960270524025,0.4483514726161957,0.2222784459590912
1774158615717499100,18.3114990234375,-0.0313592329621315,0.7201467752456665,0.3553769588470459
1774158615737493000,18.331492919921875,0.13208051025867462,0.9779409170150757,0.19972066581249237
1774158615757487000,18.351487060546877,0.28873351216316223,0.7847674489021301,0.0471913106739521
1774158615777481000,18.37148095703125,0.34216439723968506,0.6307132840156555,0.11114007234573364
1774158615797475000,18.39147509765625,-0.007426467724144459,0.6686543226242065,0.1957196444272995
1774158615817468000,18.411468017578127,-0.2744300663471222,0.37029269337654114,0.1498176008462906
1774158615837462000,18.4314619140625,-0.3036760985851288,0.43670153617858887,0.10338261723518372
1774158615857455900,18.451455810546875,-0.23163001239299774,0.4200782775878906,0.14070342481136322
1774158615877450000,18.471449951171873,-0.1675562560558319,0.5822442173957825,0.1893749237060547
1774158615897444000,18.491444091796875,-0.15342235565185547,0.6190351843833923,0.1018061414361
1774158615917437200,18.511437255859374,-0.18278348445892334,0.5770605206489563,0.06861009448766708
1774158615937431000,18.53143115234375,-0.31820225715637207,0.4935278594493866,0.07147981226444244
1774158615957425200,18.551425048828126,-0.4228711724281311,0.14544950425624847,0.2083396017551422
1774158615977419000,18.5714189453125,-0.41669413447380066,0.22867481410503387,0.2543371915817261
1774158615997412900,18.591412841796874,-0.3357316851615906,0.012524074874818325,0.27576765418052673
1774158616017406000,18.611406005859376,-0.0940711572766304,-0.4995124042034149,0.5289946794509888
1774158616037400000,18.631400146484374,-0.0479506216943264,-0.24693572521209717,0.5296632647514343
1774158616057394000,18.651393798828124,-0.1432504951953888,0.12671484053134918,0.18549777567386627
1774158616077388000,18.671387939453126,0.05745233595371246,0.07035374641418457,-0.062157921493053436
1774158616097382100,18.691382080078125,0.08082868903875351,-0.0933474600315094,-0.13553079962730408
1774158616117375000,18.711375,0.23735348880290985,-0.42133617401123047,-0.12714573740959167
1774158616137368800,18.731368896484376,0.31638720631599426,-0.8032068014144897,-0.15064038336277008
1774158616157363000,18.751363037109375,0.4739764332771301,-0.5766810178756714,-0.16888998448848724
1774158616177357000,18.771357177734377,0.8553392291069031,-0.5196996927261353,-0.17726542055606842
1774158616197351000,18.791350830078127,1.1591516733169556,-0.46164828538894653,-0.1807374805212021
1774158616217344000,18.811343994140625,1.1520682573318481,0.026559002697467804,-0.027981562539935112
1774158616237338000,18.831338134765623,0.9392173886299133,0.6747445464134216,0.023973098024725914
1774158616257332000,18.85133203125,0.7543938755989075,0.6244530081748962,-0.024300916120409966
1774158616277326000,18.871326171875,0.5514010787010193,0.2906370759010315,-0.05381046235561371
1774158616297320400,18.891320556640625,0.32647138833999634,0.16551698744297028,0.011237595230340958
1774158616317313500,18.9113134765625,0.37022677063941956,-0.06388019770383835,-0.0017535919323563576
1774158616337307400,18.931307373046874,0.3229907751083374,-0.2135877162218094,-0.05331495404243469
1774158616357301200,18.95130126953125,0.26415762305259705,-0.6281360387802124,-0.06577304750680923
1774158616377295400,18.97129541015625,0.3523009717464447,-1.1276222467422485,-0.11030154675245285
1774158616397289200,18.991289306640624,0.4352588951587677,-0.9773481488227844,-0.05055689066648483
1774158616417282300,19.0112822265625,0.4224357008934021,-0.723671019077301,-0.022410975769162178
1774158616437276400,19.0312763671875,0.31926339864730835,-0.3375400900840759,0.03522561490535736
1774158616457270300,19.051270263671874,0.24918174743652344,-0.06310087442398071,0.030346054583787918
1774158616477264400,19.071264404296876,0.21804046630859375,0.046430688351392746,-0.030671464279294014
1774158616497258500,19.091258544921875,0.09322988986968994,0.04150475561618805,-0.0718623548746109
1774158616517251300,19.111251220703124,-0.010883851908147335,-0.06181922182440758,-0.03456896170973778
1774158616537245200,19.1312451171875,-0.04552261903882027,-0.1279534250497818,-0.042048681527376175
1774158616557239300,19.1512392578125,-0.09719540923833847,-0.32321080565452576,0.016733888536691666
1774158616577233400,19.1712333984375,-0.185350239276886,-0.5586109757423401,0.2273978739976883
1774158616597227300,19.191227294921877,-0.28201261162757874,-0.6789206266403198,0.3736936151981354
1774158616617220400,19.211220458984375,-0.27819913625717163,-0.5949478149414062,0.361646443605423
1774158616637214500,19.23121435546875,-0.16758640110492706,-0.5076838135719299,0.20078380405902863
1774158616657208300,19.251208251953123,-0.05975658446550369,-0.349696546792984,0.09207606315612793
1774158616677202400,19.271202392578125,-0.10688330233097076,-0.1985870748758316,0.08841998130083084
1774158616697196300,19.2911962890625,-0.2226734161376953,-0.11810771375894547,0.062108878046274185
1774158616717190100,19.311190185546874,-0.2556993365287781,-0.4578072726726532,-0.15384115278720856
1774158616737183200,19.331183349609375,-0.06134951859712601,-0.9372893571853638,-0.4584197998046875
1774158616757177300,19.35117724609375,0.23705729842185974,-0.8767463564872742,-0.5472725629806519
1774158616777171500,19.37117138671875,0.5322275757789612,-1.0032883882522583,-0.34917429089546204
1774158616797165300,19.391165283203126,0.5083192586898804,-0.989753246307373,-0.2520575225353241
1774158616817159400,19.411159423828124,0.43417084217071533,-0.3995096683502197,-0.47779417037963867
1774158616837152300,19.43115234375,0.2305452525615692,0.3153519630432129,-0.578746497631073
1774158616857146400,19.451146484375,-0.028016861528158188,0.6062604188919067,-0.4507403075695038
1774158616877140200,19.47114013671875,-0.1419530063867569,0.5874574184417725,-0.1266007423400879
1774158616897134300,19.49113427734375,-0.34393852949142456,0.3625487685203552,0.1963629275560379
1774158616917128400,19.51112841796875,-0.3059365153312683,-0.26028990745544434,0.46344003081321716
1774158616937121300,19.531121337890625,-0.3631279468536377,-0.7101706266403198,0.6575514674186707
1774158616957115400,19.551115478515626,-0.23073823750019073,-0.1515825241804123,0.28497472405433655
1774158616977109500,19.571109619140625,-0.23047208786010742,0.04486071318387985,0.07479971647262573
1774158616997103400,19.591103271484375,-0.3060789406299591,-0.02634766697883606,0.17422276735305786
1774158617017097200,19.61109716796875,-0.3990408480167389,-0.16155342757701874,0.3432048559188843
1774158617037090300,19.63109033203125,-0.5176494121551514,-0.3092387914657593,0.4080069065093994
1774158617057084400,19.65108447265625,-0.6180941462516785,-0.27150529623031616,0.4413210451602936
1774158617077078300,19.671078369140623,-0.6680148839950562,-0.06485635787248611,0.431135892868042
1774158617097072400,19.691072265625,-0.5968284606933594,0.037113383412361145,0.40555715560913086
1774158617117066500,19.71106640625,-0.4730239808559418,0.06167225539684296,0.41548487544059753
1774158617137059300,19.731059326171874,-0.3878193497657776,0.008540327660739422,0.41169095039367676
1774158617157053200,19.75105322265625,-0.3168337941169739,-0.009207372553646564,0.3376694321632385
1774158617177047300,19.77104736328125,-0.2884710133075714,0.09667907655239105,0.2107262909412384
1774158617197041200,19.791041259765624,-0.3069881200790405,0.04435316100716591,0.1506405919790268
1774158617217035300,19.81103515625,-0.3189217150211334,0.2528311610221863,-0.03898546099662781
1774158617237028400,19.8310283203125,-0.20693519711494446,0.3221394419670105,-0.007652514614164829
1774158617257022500,19.8510224609375,-0.17786377668380737,0.0960303246974945,0.01530352234840393
1774158617277016300,19.871016357421876,-0.16603797674179077,-0.03053899295628071,0.011240345425903797
1774158617297010200,19.89101025390625,-0.15382729470729828,-0.0625595971941948,0.015292789787054062
1774158617317004300,19.91100439453125,-0.07259880006313324,-0.17348219454288483,0.019623026251792908
1774158617336997000,19.9309970703125,0.046833306550979614,-0.23876670002937317,-0.19123633205890656
1774158617356991000,19.950990966796876,0.2001189887523651,-0.4566148817539215,-0.37306880950927734
1774158617376985000,19.970985107421875,0.37597498297691345,-0.4814711809158325,-0.4443867802619934
1774158617396979200,19.990979248046877,0.4473237693309784,-0.4966413676738739,-0.5021849870681763
1774158617416972300,20.01097216796875,0.41303858160972595,-0.2586483061313629,-0.31965285539627075
1774158617436966100,20.030966064453125,0.3379611074924469,-0.09916733205318451,0.012469579465687275
1774158617456960300,20.050960205078123,0.20874826610088348,-0.08917144685983658,0.1668844074010849
1774158617476953900,20.070953857421873,0.012200680561363697,-0.2138894647359848,0.28545475006103516
1774158617496948000,20.090947998046875,-0.13324323296546936,-0.1947757452726364,0.2091227024793625
1774158617516941000,20.110941162109373,-0.16138865053653717,-0.31103166937828064,0.19908283650875092
1774158617536935200,20.13093505859375,-0.16745029389858246,-0.6159719228744507,0.35684487223625183
1774158617556929000,20.150928955078125,-0.04344843327999115,-0.6451007723808289,0.388430655002594
1774158617576923100,20.170923095703124,0.11646849662065506,-0.4259961247444153,0.23618972301483154
1774158617596917200,20.190917236328126,0.20675836503505707,-0.198378324508667,0.19804567098617554
1774158617616910000,20.21091015625,0.22586578130722046,0.036878496408462524,0.17443148791790009
1774158617636904000,20.230904052734374,0.18386468291282654,0.1173592358827591,0.1554483026266098
1774158617656898000,20.25089794921875,0.14666326344013214,0.22447825968265533,0.15359298884868622
1774158617676892200,20.27089208984375,0.07273529469966888,0.26543137431144714,0.1917460709810257
1774158617696886000,20.290885986328124,0.009670855477452278,0.2807818651199341,0.22369585931301117
1774158617716879000,20.310879150390626,-0.08333659172058105,0.36845073103904724,0.22227366268634796
1774158617736873200,20.330873291015624,-0.1505614072084427,0.29943814873695374,0.24939607083797455
1774158617756867000,20.3508671875,-0.2241760492324829,0.29862362146377563,0.2050037682056427
1774158617776861200,20.370861083984376,-0.21738991141319275,0.328191339969635,0.15403902530670166
1774158617796855300,20.390855224609375,-0.15051127970218658,0.5040484070777893,0.026786433532834053
1774158617816848100,20.41084814453125,-0.08910409361124039,0.454445481300354,-0.006167147308588028
1774158617836842000,20.430842041015627,-0.03570699319243431,0.31788453459739685,-0.03795289620757103
1774158617856836000,20.450836181640625,-0.03034498356282711,0.12928159534931183,0.007824179716408253
1774158617876830200,20.470830322265623,-0.034185342490673065,-0.10003617405891418,0.047452423721551895
1774158617896824000,20.490823974609373,0.04223206266760826,-0.38047024607658386,-0.00697941891849041
1774158617916817200,20.510817138671875,0.25721219182014465,-0.6726487874984741,-0.2993942201137543
1774158617936811300,20.530811279296874,0.6667147874832153,-0.6614317893981934,-0.6461493372917175
1774158617956804900,20.550804931640624,0.8664169311523438,-0.31792017817497253,-0.2880302965641022
1774158617976799000,20.570799072265626,0.6198217868804932,-0.01298635546118021,-0.19515328109264374
1774158617996793000,20.59079296875,0.3245047628879547,0.18198539316654205,-0.18858329951763153
1774158618016786200,20.6107861328125,-0.0523483008146286,0.2982354462146759,-0.2010926604270935
1774158618036780000,20.630780029296876,-0.25963109731674194,0.4268980026245117,-0.1408969908952713
1774158618056774100,20.650774169921874,-0.3540891408920288,0.5497092008590698,0.08803557604551315
1774158618076768300,20.670768310546876,-0.42282265424728394,0.9290778040885925,-0.005657943896949291
1774158618096762000,20.69076220703125,-0.3521200120449066,1.264891505241394,-0.01993483491241932
1774158618116755000,20.7107548828125,-0.288571834564209,1.1336928606033325,0.0011760005727410316
1774158618136749000,20.7307490234375,-0.2785767614841461,0.7271391749382019,-0.026382233947515488
1774158618156743200,20.7507431640625,-0.3021749258041382,0.5062605738639832,-0.031106706708669662
1774158618176737000,20.770737060546875,-0.3346779942512512,0.3215423822402954,0.0565144307911396
1774158618196731100,20.790731201171877,-0.34161555767059326,0.46611523628234863,0.012912197969853878
1774158618216724200,20.81072412109375,-0.40229475498199463,0.5127947330474854,0.02291393093764782
1774158618236718000,20.830718017578125,-0.47553369402885437,0.5880872011184692,-0.014290716499090195
1774158618256712200,20.850712158203127,-0.49945250153541565,0.5086535215377808,0.07690509408712387
1774158618276706000,20.8707060546875,-0.4900793135166168,0.4338188171386719,0.07800150662660599
1774158618296699600,20.89069970703125,-0.42376410961151123,0.2752882242202759,0.11314508318901062
1774158618316692700,20.910692626953125,-0.31154167652130127,0.17937025427818298,0.1382788121700287
1774158618336686800,20.930686767578123,-0.1886088252067566,0.11622697114944458,0.09275715053081512
1774158618356681000,20.950680908203125,-0.1989692598581314,0.2037699967622757,-0.15262308716773987
1774158618376674800,20.9706748046875,-0.11586371809244156,-0.12303820997476578,0.1523997187614441
1774158618396668000,20.99066796875,-0.046552982181310654,-0.14074349403381348,0.013735865242779255
1774158618416661800,21.010661865234376,0.025766974315047264,-0.04482584446668625,-0.07842746376991272
1774158618436655900,21.03065576171875,-0.009576074779033661,-0.10776641219854355,-0.09735513478517532
1774158618456649700,21.050649658203124,-0.05864941328763962,-0.42051753401756287,-0.024844728410243988
1774158618476643800,21.070643798828126,0.029135018587112427,-0.2090013176202774,-0.17495444416999817
1774158618496637000,21.090636962890624,0.16560475528240204,-0.2789462208747864,-0.13082313537597656
1774158618516630800,21.110630859375,0.29200583696365356,-0.411360502243042,-0.29542770981788635
1774158618536625000,21.130625,0.35735273361206055,-0.3455972373485565,-0.545013427734375
1774158618556619000,21.150618896484374,0.32614773511886597,0.006844572722911835,-0.4085213541984558
1774158618576612900,21.17061279296875,0.23164594173431396,0.2508768141269684,-0.2041902244091034
1774158618596605700,21.190605712890626,0.05884508043527603,0.5577296018600464,-0.15739381313323975
1774158618616599800,21.210599853515625,0.022669779136776924,0.1611226499080658,0.10347092151641846
1774158618636594000,21.230593994140627,-0.004685528576374054,-0.03410646691918373,-0.04774802550673485
1774158618656587800,21.250587890625,0.04772978276014328,-0.15374968945980072,-0.02821394056081772
1774158618676582000,21.270581787109375,0.12875515222549438,-0.19614477455615997,0.0068625048734247684
1774158618696575000,21.290574951171877,0.16236603260040283,-0.1600460261106491,0.005976457614451647
1774158618716568800,21.31056884765625,0.2882385849952698,-0.06387350708246231,-0.04893535003066063
1774158618736562700,21.330562744140625,0.3205316662788391,-0.023657675832509995,-0.043539389967918396
1774158618756556800,21.350556884765624,0.2936744689941406,0.09575816988945007,-0.009853173047304153
1774158618776550700,21.370550537109374,0.2718280851840973,0.2096228450536728,0.04513957351446152
1774158618796543700,21.390543701171875,0.21034112572669983,0.2551892101764679,0.09045253694057465
1774158618816537900,21.410537841796874,0.1031910628080368,0.19057416915893555,0.11733385920524597
1774158618836532000,21.430531982421876,0.014819880947470665,0.19416987895965576,0.14115464687347412
1774158618856525800,21.45052587890625,-0.017150720581412315,0.279451459646225,0.18173682689666748
1774158618876520000,21.47052001953125,-0.04764534905552864,0.3964998424053192,0.17670556902885437
1774158618896512800,21.4905126953125,-0.06455065310001373,0.4678742587566376,0.10491429269313812
1774158618916507000,21.5105068359375,-0.019304849207401276,0.4626462459564209,0.0891009271144867
1774158618936500700,21.530500732421874,0.00992485973984003,0.4605397880077362,0.04658742994070053
1774158618956494800,21.550494873046876,0.0385131761431694,0.46549609303474426,-0.0004374787677079439
1774158618976488000,21.570488037109374,0.05513199791312218,0.404597669839859,0.016779303550720215
1774158618996481800,21.590481689453124,0.04016627371311188,0.2894711494445801,0.07862784713506699
1774158619016476000,21.610475830078126,0.046299248933792114,0.2599547505378723,0.11193078011274338
1774158619036470000,21.630469970703125,0.04118863493204117,0.033343978226184845,0.10413378477096558
1774158619056464000,21.6504638671875,0.014346219599246979,-0.297292023897171,-0.032745372503995895
1774158619076456700,21.670456787109377,0.11273005604743958,-0.37765663862228394,-0.4659023582935333
1774158619096450800,21.690450927734375,0.3936096429824829,-0.044538386166095734,-0.7397003173828125
1774158619116445000,21.71044482421875,0.588148832321167,-0.07034215331077576,-0.5736966729164124
1774158619136438800,21.730438720703123,0.5625414252281189,-0.3408363163471222,-0.3359326720237732
1774158619156433000,21.750432861328125,0.3175886273384094,-0.4488741457462311,-0.2255840301513672
1774158619176426000,21.770426025390623,0.03058888018131256,-0.2546619176864624,-0.2242489606142044
1774158619196419800,21.790419921875,-0.24953080713748932,0.4015718102455139,-0.16280938684940338
1774158619216413700,21.81041357421875,-0.4317763149738312,0.8430825471878052,-0.02394253760576248
1774158619236407800,21.83040771484375,-0.41397181153297424,1.1276975870132446,0.1120513379573822
1774158619256401700,21.850401611328124,-0.316292941570282,1.1497913599014282,0.2078080028295517
1774158619276394800,21.870394775390626,-0.24610505998134613,0.8457098603248596,0.25834375619888306
1774158619296389000,21.89038916015625,-0.21902385354042053,0.44801241159439087,0.2733352780342102
1774158619316383200,21.91038330078125,-0.23788118362426758,0.3762683868408203,0.2779897451400757
1774158619336377000,21.930377197265624,-0.29620587825775146,0.3843527138233185,0.29760611057281494
1774158619356371200,21.95037109375,-0.3616392910480499,0.49133676290512085,0.3141884207725525
1774158619376364300,21.9703642578125,-0.39291685819625854,0.4200097322463989,0.31175297498703003
1774158619396358100,21.990358154296874,-0.3913382887840271,0.30511850118637085,0.26570138335227966
1774158619416352000,22.01035205078125,-0.3772938847541809,0.21484284102916718,0.1610179990530014
1774158619436346000,22.03034619140625,-0.3484574556350708,0.19137847423553467,0.11000444740056992
1774158619456339200,22.050339111328125,-0.28913965821266174,0.13906686007976532,0.15722334384918213
1774158619476333000,22.0703330078125,-0.24958625435829163,0.04488445073366165,0.20304465293884277
1774158619496327200,22.0903271484375,-0.17400453984737396,0.06499503552913666,0.1449376344680786
1774158619516321300,22.1103212890625,-0.08910570293664932,0.06307899951934814,0.03158033266663551
1774158619536315100,22.130315185546873,-0.050622377544641495,-0.009810158051550388,-0.06671494245529175
1774158619556308000,22.150307861328123,-0.04664432257413864,0.12183781713247299,-0.12240460515022278
1774158619576302000,22.170302001953125,-0.047035880386829376,0.033302467316389084,-0.11146999895572662
1774158619596296200,22.190296142578124,-0.059716638177633286,-0.012694817036390305,-0.12382533401250839
1774158619616290000,22.2102900390625,-0.05146185681223869,0.041561059653759,-0.12290935963392258
1774158619636284200,22.2302841796875,0.0071603478863835335,0.030754027888178825,-0.14240767061710358
1774158619656277200,22.25027734375,0.2115359902381897,-0.15232256054878235,-0.3216061592102051
1774158619676271000,22.27027099609375,0.4246736466884613,-0.3563905954360962,-0.5131523013114929
1774158619696265200,22.29026513671875,0.4768006205558777,-0.13711901009082794,-0.6150397062301636
1774158619716259300,22.31025927734375,0.4330829083919525,-0.2036549597978592,-0.64405357837677
1774158619736253000,22.3302529296875,0.30190712213516235,-0.08185918629169464,-0.4657566249370575
1774158619756246000,22.35024609375,0.19617009162902832,-0.10836603492498398,-0.20727983117103577
1774158619776240000,22.370240234375,0.12109103798866272,-0.30882084369659424,0.10685539990663528
1774158619796234200,22.390234130859376,0.018947644159197807,-0.38840779662132263,0.3293048143386841
1774158619816228000,22.41022802734375,-0.04717696085572243,-0.41237714886665344,0.35727566480636597
1774158619836221200,22.43022119140625,0.047591593116521835,-0.3671591281890869,0.1948462575674057
1774158619856215300,22.45021533203125,0.010020548477768898,-0.28996601700782776,0.10252432525157928
1774158619876209000,22.470208984375,-0.004341360181570053,-0.3600465655326843,0.12460927665233612
1774158619896203000,22.490203125,0.030047835782170296,-0.3348335027694702,0.14143694937229156
1774158619916197000,22.510197021484377,0.08760402351617813,-0.2817173898220062,0.16887085139751434
1774158619936190200,22.530190185546875,0.1281435191631317,-0.21754281222820282,0.22721023857593536
1774158619956184000,22.55018408203125,0.15451514720916748,-0.2085350602865219,0.2677186131477356
1774158619976178200,22.57017822265625,0.19006364047527313,-0.1750861257314682,0.2538314163684845
1774158619996172300,22.59017236328125,0.19598127901554108,-0.18749412894248962,0.2300131916999817
1774158620016166100,22.610166259765624,0.11481279879808426,-0.20056302845478058,0.2673001289367676
1774158620036159000,22.630158935546874,0.07929261028766632,-0.16417868435382843,0.29943084716796875
1774158620056153000,22.650153076171875,0.04908416420221329,-0.2592025399208069,0.27931535243988037
1774158620076147200,22.670147216796874,-0.023867806419730186,-0.10532191395759583,0.28401318192481995
1774158620096141000,22.69014111328125,-0.031186992302536964,0.034529417753219604,0.23853661119937897
1774158620116135200,22.71013525390625,-0.014018256217241287,-0.059064704924821854,0.13065224885940552
1774158620136128300,22.730128173828124,-0.01611211523413658,-0.17574886977672577,0.06376230716705322
1774158620156122000,22.7501220703125,0.0003609093837440014,-0.2652509808540344,0.06130453571677208
1774158620176116200,22.7701162109375,0.07107319682836533,-0.2826578915119171,0.11997850984334946
1774158620196110300,22.7901103515625,0.12521670758724213,-0.5570281744003296,0.14383789896965027
1774158620216104000,22.81010400390625,0.13535530865192413,-0.8561737537384033,-0.017463011667132378
1774158620236097000,22.830096923828126,0.3401610255241394,-1.367936134338379,-0.41644179821014404
1774158620256091100,22.850091064453125,0.6509154438972473,-1.603965401649475,-0.6665732860565186
1774158620276085200,22.870085205078126,0.7892230153083801,-1.4570094347000122,-0.5954597592353821
1774158620296079000,22.8900791015625,0.6674049496650696,-1.2483844757080078,-0.4228442907333374
1774158620316073200,22.9100732421875,0.4373079538345337,-0.7948672771453857,-0.5854711532592773
1774158620336066300,22.93006640625,0.11746780574321747,-0.4889450967311859,-0.5986413359642029
1774158620356060000,22.950059814453127,-0.19923904538154602,-0.25755929946899414,-0.33541133999824524
1774158620376054000,22.970053955078125,-0.41184622049331665,-0.17696185410022736,0.08639500290155411
1774158620396048100,22.990048095703123,-0.45724645256996155,-0.2350781410932541,0.35272660851478577
1774158620416042000,23.0100419921875,-0.40274450182914734,-0.2790220081806183,0.3183189630508423
1774158620436035000,23.03003515625,-0.320165753364563,-0.07967852801084518,-0.08640588819980621
1774158620456029200,23.050029296875,-0.3634624779224396,0.42722436785697937,-0.07172539830207825
1774158620476023300,23.070023193359376,-0.35941269993782043,0.21123196184635162,0.14673081040382385
1774158620496017200,23.09001708984375,-0.4103461802005768,0.09687342494726181,0.24302533268928528
1774158620516011300,23.11001123046875,-0.48798927664756775,0.2627248466014862,0.1852768361568451
1774158620536004000,23.130004150390626,-0.5475209951400757,0.3563976585865021,0.1210017129778862
1774158620555998200,23.149998291015624,-0.5609237551689148,0.23399898409843445,0.199531689286232
1774158620575992000,23.169991943359374,-0.5775585174560547,0.03893385827541351,0.28847262263298035
1774158620595986200,23.189986083984376,-0.35243555903434753,0.26557546854019165,0.21062950789928436
1774158620615979300,23.209979248046874,-0.2004096806049347,-0.10751474648714066,0.16078127920627594
1774158620635973000,23.22997314453125,-0.2030683159828186,-0.1008874699473381,0.15068742632865906
1774158620655967200,23.24996728515625,-0.2545299530029297,-0.06632907688617706,0.12735046446323395
1774158620675961300,23.26996142578125,-0.3510330319404602,-0.0988837257027626,0.18794414401054382
1774158620695955000,23.289954833984375,-0.3547416627407074,-0.1439107209444046,0.2782146632671356
1774158620715948000,23.309947998046876,-0.21390514075756073,-0.1776488721370697,0.19302883744239807
1774158620735942100,23.329942138671875,-0.09344086050987244,-0.38305068016052246,0.17924706637859344
1774158620755936300,23.349936279296877,0.01791016384959221,-0.2508319318294525,0.12959003448486328
1774158620775930000,23.36993017578125,0.039193976670503616,-0.22494447231292725,0.26053282618522644
1774158620795924200,23.38992431640625,-0.15700988471508026,0.08750291913747787,-0.03221914544701576
1774158620815917300,23.409917236328123,-0.05857690051198006,0.6332281231880188,-0.09960758686065674
1774158620835911000,23.429910888671873,0.20534271001815796,0.031410302966833115,0.0021149087697267532
1774158620855905000,23.449905029296875,0.35486048460006714,-0.20067286491394043,-0.18900179862976074
1774158620875899100,23.469899169921874,0.507783830165863,-0.002594271209090948,-0.2883416712284088
1774158620895893000,23.48989306640625,0.5832970142364502,0.10949299484491348,-0.31768518686294556
1774158620915886000,23.509885986328126,0.6622207164764404,0.330905556678772,-0.25439828634262085
1774158620935880200,23.529880126953124,0.5447877049446106,0.2332375943660736,-0.23361892998218536
1774158620955874300,23.549874267578126,0.4607125520706177,-0.16455258429050446,-0.056280363351106644
1774158620975868200,23.5698681640625,0.33037248253822327,-0.3408254086971283,0.2531924843788147
1774158620995862300,23.5898623046875,0.25355300307273865,-0.3259369134902954,0.4174506664276123
1774158621015855000,23.609855224609376,0.21481885015964508,-0.6643651723861694,0.18384088575839996
1774158621035849200,23.62984912109375,0.17101210355758667,-0.6196680068969727,0.13412219285964966
1774158621055843000,23.649843017578124,0.025927795097231865,-0.6239612102508545,0.16294680535793304
1774158621075837200,23.669837158203126,-0.004238862078636885,-0.3555954396724701,0.021133743226528168
1774158621095831000,23.6898310546875,-0.000387753127142787,-0.3562896251678467,0.010481453500688076
1774158621115824000,23.70982421875,0.143136128783226,-0.4075424373149872,0.1295974999666214
1774158621135818200,23.729818359375,0.22200138866901398,-0.517664909362793,0.2353024184703827
1774158621155812000,23.74981201171875,0.18605393171310425,-0.5412450432777405,0.1938323974609375
1774158621175806000,23.769805908203125,0.0356791615486145,-0.3160860538482666,0.061993591487407684
1774158621195799000,23.789799072265627,-0.04157225042581558,-0.025147737935185432,0.015520360320806503
1774158621215793200,23.809793212890625,-0.1304919421672821,-0.015473181381821632,0.014924195595085621
1774158621235787300,23.829787353515623,-0.13312382996082306,-0.11269561201334,0.062263719737529755
1774158621255781000,23.849781005859374,-0.10715309530496597,-0.24463316798210144,0.08982277661561966
1774158621275775200,23.869775146484375,-0.04361911490559578,-0.22544454038143158,0.11199289560317993
1774158621295768000,23.88976806640625,0.038370758295059204,-0.17466111481189728,0.14835356175899506
1774158621315762000,23.909761962890624,0.10558664798736572,-0.09785988181829453,0.0596625879406929
1774158621335756000,23.929756103515626,0.17928695678710938,-0.020776307210326195,0.007946554571390152
1774158621355750100,23.949750244140624,0.22038151323795319,0.025326969102025032,0.04489751160144806
1774158621375744000,23.969743896484374,0.21737033128738403,0.029143108054995537,-0.045089785009622574
1774158621395737000,23.989737060546876,0.24781352281570435,-0.24200597405433655,-0.3039890229701996
1774158621415731200,24.009731201171874,0.37945225834846497,-0.4324898421764374,-0.6346879005432129
1774158621435725300,24.029725341796876,0.5120002031326294,-0.2506595253944397,-0.6679041385650635
1774158621455719000,24.049718994140626,0.6215347051620483,-0.039560846984386444,-0.6393893361091614
1774158621475713000,24.069713134765625,0.5766940116882324,-0.06734799593687057,-0.6958321332931519
1774158621495706000,24.0897060546875,0.43496179580688477,0.20064115524291992,-0.6023243069648743
1774158621515700200,24.1097001953125,0.3632814884185791,0.25776007771492004,-0.34955230355262756
1774158621535694000,24.129694091796875,0.21833644807338715,-0.05952298268675804,-0.08477623015642166
1774158621555688200,24.149688232421877,-0.022316036745905876,-0.11705537885427475,0.09034314006567001
1774158621575682000,24.16968212890625,-0.19697453081607819,0.27179914712905884,0.14997923374176025
1774158621595675000,24.1896748046875,-0.266589879989624,0.5116673111915588,0.3437187969684601
1774158621615669000,24.2096689453125,-0.3583572804927826,0.3907351791858673,0.26748448610305786
1774158621635663000,24.2296630859375,-0.37336382269859314,0.22086428105831146,0.16162537038326263
1774158621655657000,24.249656982421875,-0.3912818729877472,0.16599011421203613,0.17740772664546967
1774158621675651000,24.269651123046874,-0.4220002293586731,0.10681118816137314,0.14586302638053894
1774158621695644200,24.28964404296875,-0.424697607755661,0.12457501888275146,0.08635957539081573
1774158621715638300,24.30963818359375,-0.40479353070259094,0.16221004724502563,0.1093960553407669
1774158621735632100,24.329632080078124,-0.40735581517219543,0.020333483815193176,0.1812761425971985
1774158621755626200,24.349626220703126,-0.4221664071083069,-0.012121063657104969,0.16702212393283844
1774158621775619000,24.369619140625,-0.4233725965023041,-0.0416979044675827,0.20250006020069122
1774158621795613000,24.389613037109374,-0.4100249111652374,-0.07926253229379654,0.2499932497739792
1774158621815607000,24.40960693359375,-0.3768318295478821,-0.12435680627822876,0.2631416320800781
1774158621835601200,24.42960107421875,-0.32561615109443665,-0.1571517288684845,0.23270775377750397
1774158621855595000,24.449594970703124,-0.26096710562705994,-0.19567248225212097,0.1635391265153885
1774158621875589000,24.469589111328126,-0.1661837100982666,-0.20886729657649994,0.09077441692352295
1774158621895582200,24.489582275390624,-0.08809303492307663,-0.2223130613565445,0.03396894782781601
1774158621915576000,24.509576171875,-0.02035989612340927,-0.2993023097515106,0.01449376530945301
1774158621935570000,24.52956982421875,0.010183330625295639,-0.41577041149139404,0.05282197147607803
