time,seconds_elapsed,z,y,x
1774159255147265800,0.065265869140625,0.18775602975189684,0.19284370827972888,0.9221676713284105
1774159255167258600,0.085258544921875,0.04682137240767479,0.310488090929389,0.696078549920395
1774159255187251500,0.10525146484375,-0.23000702550411223,0.31652912465929983,0.5566146592484786
1774159255207244500,0.12524462890625,-0.5574900903761386,0.6177946292132139,0.3868847731178626
1774159255227237400,0.1452373046875,-0.8360732230007648,1.3950667036771773,0.2775058770482428
1774159255247230500,0.16523046875,-1.409634742733836,2.01942843632102,0.14712436056351288
1774159255267223600,0.1852236328125,-1.4365806173264979,1.6249351974934338,0.2030922767020762
1774159255287216600,0.205216552734375,-0.810878575989604,0.9527391160070896,-0.03058583853021264
1774159255307207700,0.225207763671875,-1.0228244596242904,0.6245359201669692,-0.5655716169577092
1774159255327200800,0.24520068359375,-0.1112526357859373,0.028389059138298034,-1.1523778181891888
1774159255347193600,0.265193603515625,-0.21825988908708094,-1.0987585292696953,-1.5924023165486751
1774159255367186400,0.2851865234375,-0.6126707103282213,-0.37712709348499773,-1.9356432147838174
1774159255387179500,0.305179443359375,-0.7812479923576117,0.14442249945998192,-1.358049955316633
1774159255407172600,0.325172607421875,-0.6786123782694339,0.5209545496612787,0.10540420201867819
1774159255427165400,0.34516552734375,0.6087374625325203,1.4415566521733998,-0.4524621743239462
1774159255447158500,0.365158447265625,0.8129074514687061,1.5335013608992099,-0.9928966466113924
1774159255467151600,0.385151611328125,0.4930196640312671,0.8047627234578132,-1.94320079055652
1774159255487144400,0.40514453125,-0.024590835899114608,1.233662089756131,-2.150423445061594
1774159255507137500,0.425137451171875,0.5178121599823237,2.6318197451859713,-1.7851695985913276
1774159255527130600,0.445130615234375,0.20785949110388754,0.07529810982942581,-0.569597000016272
1774159255547123700,0.465123779296875,0.4854179568558931,-2.605695123848319,-0.2804933501601219
1774159255567115500,0.485115478515625,-0.14742285031974314,-1.5916659650981426,-0.3549216914176941
1774159255587108600,0.505108642578125,-0.5905284366250038,0.40020869386494157,-0.5035305366516113
1774159255607101700,0.525101806640625,-0.21368775886595248,0.5636632260531187,-0.0401259664222598
1774159255627094500,0.545094482421875,0.43229426943361754,0.34725481005162,0.04292378044724464
1774159255647087600,0.565087646484375,0.6739999160379171,0.19615794739425182,0.2651709856048226
1774159255667080700,0.585080810546875,0.2275198848634958,0.27682255269289013,0.23073767786622046
1774159255687073500,0.605073486328125,-0.6416700103193521,0.6278694485038518,-0.10445230812132358
1774159255707067400,0.6250673828125,-0.6450409480571746,-0.11899696630239485,-0.3672922204300761
1774159255727060500,0.645060546875,0.1909340752661228,-0.4705103105813265,-0.1172743802934885
1774159255747053600,0.665053466796875,0.6681517745316028,-0.5618272427976131,0.14157646237909793
1774159255767046700,0.685046630859375,0.11872107197046279,-0.2610439688026905,0.0016986206114292144
1774159255787039500,0.70503955078125,-0.4413654646396637,-0.0015028057783842085,-0.24225801979005335
1774159255807032600,0.725032470703125,-0.39498540625870227,-0.007194879940152167,-0.23721651849150657
1774159255827025700,0.745025634765625,0.03240121738910675,-0.3502943238779902,0.015390169094502925
1774159255847018500,0.7650185546875,0.18640461514294146,-0.19874182640761137,0.5295289012610912
1774159255867011600,0.785011474609375,0.2752817529916763,0.48480596243739127,1.046206504255533
1774159255887004700,0.805004638671875,0.0644277562469244,0.736716484452784,0.8034796979099512
1774159255906997800,0.824997802734375,0.053124856466054915,0.6848463042229413,0.64141282068789
1774159255926990600,0.844990478515625,-0.1288940909385681,0.523494297271967,0.33614801736474037
1774159255946983700,0.864983642578125,-0.34315526577830313,0.1555547188490629,0.15763152512311934
1774159255966975700,0.884975830078125,0.16236849051713942,-0.014530045133829116,0.4521393721103668
1774159255986968600,0.904968505859375,0.5194388844013214,0.3090916681349277,0.5347387448638677
1774159256006961700,0.924961669921875,0.0423287371635437,0.25449586233347654,0.29702129111289977
1774159256026954800,0.944954833984375,-0.38573067117929455,-0.33635727620124817,0.37800679892897604
1774159256046947600,0.964947509765625,-0.5266431166917085,0.052746670803427695,-0.028762568625807762
1774159256066940700,0.984940673828125,0.08933598753213882,0.6584604016005993,-0.38994273591637607
1774159256086933500,1.00493359375,0.5548632490038872,1.0574284477546811,-0.8519880004912614
1774159256106926600,1.024926513671875,0.881498757135868,0.6902268282175064,-1.571896265745163
1774159256126919400,1.04491943359375,1.761929008257389,0.684647274519503,-1.3920885646492243
1774159256146912500,1.06491259765625,1.8863047449886798,1.9017890221074223,-0.7759212443768978
1774159256166905600,1.084905517578125,1.4534996034234762,1.8966265247777103,-0.4409317493975162
1774159256186898400,1.1048984375,-0.5907131455421447,0.67100584878847,-1.7120786434173583
1774159256206891500,1.1248916015625,-1.3085355444326996,0.25106033492684365,-1.646031761536002
1774159256226884600,1.144884521484375,-1.235049744722247,-0.04762158287465572,-1.5965432157456874
1774159256246877700,1.164877685546875,-0.7761272883430123,0.11622457897961139,-0.7959042942196131
1774159256266870500,1.18487060546875,-0.9517986202865838,0.28744492286369205,-0.5185843133985996
1774159256286863600,1.204863525390625,-0.6492822388887405,0.6239101894840597,0.09146598529815674
1774159256306856700,1.224856689453125,-0.6982347781062126,0.8103979528658092,0.22202362553477287
1774159256326849500,1.244849609375,-0.5876958435475826,0.09958996278196573,0.5935925003707408
1774159256346841600,1.264841552734375,-0.22931436706483363,-0.5982290741302073,0.5911018525987863
1774159256366834700,1.284834716796875,0.08856792576909064,-0.7517953956410288,0.5309668251097202
1774159256386827500,1.30482763671875,-0.18825842631608247,-0.5714421894915401,0.3995885161399841
1774159256406820600,1.324820556640625,-0.4424915460601449,-1.636632357288897,0.3349555927097797
1774159256426813700,1.344813720703125,-0.24262393049299716,-1.7530317083135247,-0.13160276537537574
1774159256446806800,1.364806884765625,0.4592001042768359,-1.3558616514921187,0.17652327259778974
1774159256466799600,1.384799560546875,1.0952408765375614,-1.0319599522382021,0.724491501390934
1774159256486792400,1.40479248046875,-0.060386956423521036,-0.69524852883704,0.680315090534091
1774159256506785500,1.42478564453125,0.3013359394416213,-1.0829436319570989,0.45895548186600205
1774159256526778400,1.4447783203125,0.569024460825324,-1.3443274271734058,0.13309329619407653
1774159256546771500,1.464771484375,0.6667933456599712,-1.7881217263951896,0.22410276989638805
1774159256566764500,1.4847646484375,0.5846604213744402,-1.8329167075417934,-0.1349684424161911
1774159256586757600,1.504757568359375,-0.9311977308064698,-1.3278301736198366,-0.07212824762165546
1774159256606750500,1.52475048828125,-1.4610913737267255,-0.8327655597575009,-0.09894669644236564
1774159256626743600,1.54474365234375,-0.4083624819651246,3.5900785013973713,0.6020914486467838
1774159256646736600,1.564736572265625,0.6893091288506984,-0.2930873857300728,-0.21073007810413835
1774159256666729700,1.584729736328125,-0.11660831760019064,0.1574192706119269,-0.36701369574964043
1774159256686722600,1.60472265625,0.10458265650272369,-0.052776773680746555,0.7781313216418028
1774159256706714600,1.624714599609375,0.40885260356962677,-0.07680434967391192,0.5455950699210167
1774159256726707500,1.64470751953125,0.6703621440574526,-1.2373277726568281,-0.7397346632301807
1774159256746700500,1.664700439453125,0.6140723938196897,-1.7177810928426682,-1.0159083966255187
1774159256766693600,1.684693603515625,-0.7819163931384682,0.8819919474802911,-0.8533107735276222
1774159256786686700,1.704686767578125,0.12008534606099128,-1.1640713977880774,-1.3952169258028269
1774159256806679600,1.724679443359375,0.3854880945950746,-1.648863916222006,-1.4117267465770245
1774159256826672600,1.744672607421875,1.001466175905615,-0.8272546873815357,-0.8727940571546554
1774159256846665700,1.764665771484375,1.8273165494471788,-0.35281814326718447,-0.02653612474799156
1774159256866658600,1.784658447265625,1.9993087544865904,-0.218988057231158,2.1340321361005303
1774159256886651400,1.8046513671875,0.7900523533210158,0.5721819019429385,2.554910693028569
1774159256906644500,1.82464453125,0.802517574879527,-0.47552550839483737,2.6319571078300474
1774159256926637600,1.844637451171875,0.08124240518659352,0.13805004181861877,1.8975906936347484
1774159256946630400,1.86463037109375,-0.18587547670230267,1.1302351791597902,0.8826637092620134
1774159256966623500,1.88462353515625,0.5423509734332561,-0.03698036187291145,0.5651747996598482
1774159256986616600,1.904616455078125,0.7871538554005324,-0.0626043402120471,-0.9356792601346969
1774159257006609700,1.924609619140625,0.24256533217355608,-0.021792437352240086,-1.754795503115654
1774159257026602500,1.9446025390625,-0.03456935520842671,0.1478229555532336,-3.466795820599794
1774159257046594600,1.964594482421875,0.036912118942290545,1.5903747562438248,-3.0791029094368216
1774159257066587600,1.984587646484375,0.0722777390949428,1.4267796465411782,-1.0201853432923556
1774159257086580500,2.00458056640625,-0.07760112607479094,-0.13855565325319766,-1.1120715998291968
1774159257106573600,2.024573486328125,0.13081892152130603,0.7805930355802178,-0.448438764026761
1774159257126566700,2.044566650390625,1.4519554427213965,-0.3629737727090716,0.3229839998871088
1774159257146559500,2.0645595703125,2.8254104724407196,-1.1863298452168702,1.4176613973230123
1774159257166552600,2.084552490234375,1.015911903756857,-1.9235180388346313,0.6931926922857761
1774159257186545700,2.104545654296875,-0.6520743538253009,-1.5723866796106098,1.4567963068813086
1774159257206538800,2.124538818359375,-0.10206453620195388,-0.621644728770107,3.5470991913706063
1774159257226531600,2.144531494140625,-0.029537936912477015,-0.747958593957126,3.6846938906371594
1774159257246524700,2.164524658203125,-0.4317475953362882,-0.5637926976516843,1.8879951822936534
1774159257266517800,2.184517822265625,-0.6761082864940166,-0.7206288346134125,1.2336369553148745
1774159257286510600,2.204510498046875,0.42178310455232854,1.372456227940321,0.6268816065102816
1774159257306503400,2.22450341796875,1.2432359737873078,2.0774062857761977,1.010941714128852
1774159257326496500,2.24449658203125,1.3007314465530215,3.5325016339585185,-1.429799578884244
1774159257346489600,2.264489501953125,1.8940546284630893,3.4596073704004286,-0.012737901020050048
1774159257366481700,2.284481689453125,3.3667566527456043,1.1425465253308416,-0.634448826894164
1774159257386474500,2.304474609375,1.7559148625344037,1.9009382504969834,0.13765373597741126
1774159257406467600,2.324467529296875,0.7658207061231136,2.2348636233761905,2.076304754275083
1774159257426460400,2.34446044921875,-0.28530571887791156,-0.22720161269456146,0.9848030642658472
1774159257446453500,2.36445361328125,-1.4030325679898261,-4.0377635244473815,-4.589048038181662
1774159257466446600,2.384446533203125,-5.6709267443209885,-3.364346084472537,-7.061058914205431
1774159257486439400,2.404439453125,-5.983552431800961,-2.8556764313668013,-6.885462693324684
1774159257506432500,2.4244326171875,0.9944159651331603,0.9556547111928463,-0.9522101236969231
1774159257526425600,2.444425537109375,3.0739491799354552,1.4085323344498872,0.9202116418898105
1774159257546418700,2.464418701171875,1.8105552381299435,1.0729238307893276,-0.08426409109532833
1774159257566411500,2.48441162109375,1.0248702862381935,0.3130190707117319,-1.0864987671554087
1774159257586404600,2.504404541015625,-0.181443631734699,-0.9345902958542108,-0.5191407782375812
1774159257606397700,2.524397705078125,-0.6573422112256289,-0.9789537537157535,0.15903788478970526
1774159257626390500,2.544390625,-0.7436831816602498,-0.857415870758891,0.9208242208302021
1774159257646383600,2.564383544921875,0.061480633411742744,-0.7976666277170181,0.9181377582252025
1774159257666375700,2.584375732421875,0.553664431140758,-0.08719079219698905,0.7347890235215425
1774159257686368500,2.604368408203125,-0.19122458264529704,0.4693482810646295,-0.028861352825164794
1774159257706361000,2.624361083984375,-0.28239244351340453,0.26583120307922364,-0.2711135273963213
1774159257726354200,2.644354248046875,-0.9343062182158232,-1.1108195539414882,0.7718103019267321
1774159257746347300,2.66434716796875,-0.8270844453811645,-1.6757400865793226,0.5592810654461383
1774159257766340000,2.684340087890625,-2.6339485739082096,-0.7895417734503746,-0.6244342133581638
1774159257786333200,2.704333251953125,-4.414080762854218,-0.04817278701663017,-1.2086620885342358
1774159257806326300,2.724326171875,1.8054074999779461,0.9075830464631318,0.8462368896186351
1774159257826319000,2.744319091796875,0.8909826247960329,0.4169084842532873,0.42142274680733677
1774159257846312000,2.76431201171875,-3.019260142892599,-2.2811533731251954,-1.9000538688778876
1774159257866305000,2.784304931640625,-3.5237878738880157,-2.958576833871007,-2.2259154700279233
1774159257886298000,2.804298095703125,1.1085535087056457,0.5464800360620021,-1.0180050766438244
1774159257906291000,2.824291015625,5.0584208691656585,1.5459411557555198,1.7688433176904916
1774159257926284000,2.844283935546875,0.5777519571602344,-1.7604437381356954,0.5640712223321199
1774159257946277000,2.864277099609375,-2.1190841578155757,-1.9242302787572145,-1.222369711369276
1774159257966270000,2.88427001953125,-2.741485988563299,-0.974040262711048,-1.9869857178777455
1774159257986262000,2.904261962890625,-0.21872692207694053,1.441043441954255,-2.8581168102562424
1774159258006255000,2.924255126953125,1.1013099673181772,-1.6833073069632052,0.9864163446813822
1774159258026248000,2.944248046875,3.5429011551588774,-0.32323008360266686,0.29399814389944073
1774159258046241000,2.964240966796875,1.3548628497131168,-3.4698908640056847,2.4100936412930487
1774159258066234000,2.984234130859375,-2.10205732742995,-5.588815447345375,3.491757535637915
1774159258086227200,3.004227294921875,-2.133662133744359,-6.27085896910727,2.573285430891812
1774159258106220000,3.024219970703125,0.28659561255797744,-5.434088411492109,0.8647941444419324
1774159258126213000,3.044213134765625,2.215398167666793,-6.410470853415132,1.8056103290736674
1774159258146206200,3.064206298828125,0.5660679491072893,-1.9070453352004288,0.3995506683476269
1774159258166199000,3.084198974609375,2.1653338678151366,9.133301825869083,0.5086978562869131
1774159258186192100,3.104192138671875,-0.8949626343429088,22.106035684144494,-3.901732713496685
1774159258206185200,3.124185302734375,-1.4601415256559849,-1.792380845144391,0.7914261258922517
1774159258226178000,3.144177978515625,0.17040917363166808,-4.9333805310457945,2.3248009378023444
1774159258246171000,3.1641708984375,-0.28266543350219725,-0.7188099486231804,2.479955697548389
1774159258266163200,3.1841630859375,-1.1603466781765222,-0.050718964368104934,0.35139293276965616
1774159258286156300,3.20415625,0.8901543572783469,1.5078075321942568,-0.7373610659666359
1774159258306149000,3.224149169921875,1.668034919029474,0.8080313698649406,-0.6824955033130944
1774159258326142000,3.244141845703125,1.3177432254999875,-0.1349637662410736,0.269130683016032
1774159258346135000,3.264135009765625,-0.38749884989559646,-0.3953244289547205,0.8754353654436766
1774159258366127900,3.2841279296875,-0.2599134304028004,-0.1579647026002407,-0.209435508248955
1774159258386121000,3.304120849609375,0.41816396420709784,0.4398825326055288,0.07702274166494608
1774159258406114000,3.324114013671875,0.9058008392214775,0.12921207084655761,0.9759538412474095
1774159258426107100,3.344107177734375,-0.2296767341038212,-0.061003042495250695,0.4940715111717581
1774159258446100000,3.364099853515625,-1.6325883425951002,0.035087679994106294,0.7173847381256521
1774159258466093000,3.384093017578125,0.5484545510053634,-0.03385316976308823,0.013036883966624736
1774159258486086100,3.404086181640625,-0.6759597448688,-0.21658757196068762,-0.04309928314462304
1774159258506079000,3.424078857421875,-0.32579905730783937,-1.4929945784658192,1.0232039604611693
1774159258526072000,3.444072021484375,1.0278414110034704,0.4615133496552705,0.7787988456398248
1774159258546065200,3.464065185546875,1.8829419905573128,1.4791209514141082,0.6350513228319585
1774159258566057000,3.484056884765625,1.391551973554492,-0.017129998499155044,-0.09139949593320489
1774159258586050000,3.504050048828125,0.8784820396631956,0.03227028448581695,-0.5166409242458642
1774159258606043100,3.524043212890625,3.8167058213353156,0.14247662608921527,-0.7138562717385589
1774159258626036200,3.5440361328125,-3.4733249301075935,0.6686614776194095,0.4835520168535411
1774159258646029000,3.564029052734375,-1.1273604274410753,-1.8687819477796555,1.4762107630558312
1774159258666022100,3.584022216796875,2.498929278087616,0.5377303278952836,-0.19486995341032742
1774159258686015200,3.60401513671875,1.5997767908394336,0.5476835666328669,-0.22576500402018426
1774159258706008300,3.62400830078125,0.9494967000197618,0.12220774504244326,-0.085983316103369
1774159258726001400,3.64400146484375,0.4766512975543737,0.5739893897563219,0.28170740212500095
1774159258745994500,3.663994384765625,-0.5860264490306377,0.4282271661251783,0.028564269574731585
1774159258765987300,3.6839873046875,-0.3066565134098753,0.8933686431497335,-0.6771634946353733
1774159258785980400,3.70398046875,1.7211580219298601,0.41200902177393434,1.2839895705886184
1774159258805973500,3.723973388671875,1.434810685044527,-0.7708417491555214,1.5817121418386697
1774159258825966300,3.74396630859375,-0.07680909891426563,0.13361702780723572,0.7106923278149216
1774159258845959400,3.76395947265625,-0.28519524424076076,1.598821097549796,-0.0506627041362226
1774159258865952500,3.783952392578125,0.4890671270132064,0.5472311466902494,0.05658223037831485
1774159258885944300,3.8039443359375,0.5888730706334113,-1.099838725721836,-0.42234409943595524
1774159258905937400,3.8239375,1.2131798582196236,-1.1707716260790824,0.3749992146108299
1774159258925930500,3.843930419921875,-0.782435156315565,0.4832318449884653,1.2634046093299984
1774159258945923600,3.863923583984375,0.04058568375534378,1.1809604271382093,0.8411347441740333
1774159258965916400,3.88391650390625,-0.5757528922975063,1.2743003896147012,0.8877960306491702
1774159258985909500,3.903909423828125,-2.339495087456703,-0.7452706700474023,1.6369821936398743
1774159259005902600,3.923902587890625,0.6780652657806873,-0.21281331411898136,0.26905944441072643
1774159259025895400,3.9438955078125,-0.7058288864970207,0.5877724159151315,0.08430968380272388
1774159259045888500,3.963888427734375,-0.08935703032016754,-0.05423427901268005,0.46493134140521286
1774159259065881600,3.983881591796875,0.37884734140634535,0.47312078534066676,-0.45622196524888275
1774159259085874400,4.00387451171875,0.8953273760020732,-0.9032599225670098,-1.1055642637617886
1774159259105867300,4.0238671875,1.3825479983657598,-0.9698393038898706,-0.7962772922504693
1774159259125860400,4.0438603515625,-1.0786533143520354,-0.08688216463923454,0.17409896806031464
1774159259145853400,4.063853515625,-0.8237585158288478,0.27101415867507456,-0.41154060054458674
1774159259165846300,4.08384619140625,-0.6808288852751254,-0.7114560787290334,-1.3206174657620489
1774159259185839400,4.10383935546875,-0.42669513425230976,-1.3265373573303223,-1.8275223011523485
1774159259205832400,4.12383251953125,-0.623275690972805,-0.6960533424139023,-1.5331202526271341
1774159259225824300,4.14382421875,-0.21574118426442146,-0.380157254961133,-1.2921527110390365
1774159259245817300,4.1638173828125,-3.7623651593387124,-1.977866591876745,-4.002931865040957
1774159259265810400,4.183810546875,0.6773188313275575,1.2137322314053773,-0.6313077523894608
1774159259285803500,4.203803466796875,-0.06058686290979385,0.40437107424139973,0.8248937304038554
1774159259305796400,4.22379638671875,0.6335737976253032,1.8378221613705157,-0.8133237041193991
1774159259325789400,4.24378955078125,0.04185118277966976,-0.7632061397105455,0.37000016421452164
1774159259345782500,4.263782470703125,0.7988795106381178,-0.22025135516524313,0.15519187688603997
1774159259365775400,4.283775390625,0.29161855528652664,-0.04900280809998512,-0.17351795330196618
1774159259385768400,4.3037685546875,0.018247019830346108,0.4236936143487692,-0.5196038657046854
1774159259405761500,4.323761474609375,0.08339666974418797,-0.29203765748143196,-0.6722339292787015
1774159259425754600,4.343754638671875,0.19832243195176125,-0.7910024936527014,-0.4179780131809413
1774159259445747500,4.36374755859375,0.7990788326025009,-1.3145534895479678,-0.2141652401845902
1774159259465740500,4.383740478515625,1.0227584086507557,-0.5052718273609876,-0.3457606259711087
1774159259485733600,4.403733642578125,0.2872218546975404,0.1851525692552328,0.16601218078173696
1774159259505726500,4.4237265625,-0.6731066935252398,-0.5927373448461294,-0.21848076529614627
1774159259525719300,4.44371923828125,0.017923121638223526,-0.38345921911597247,-0.8786742012344301
1774159259545712400,4.46371240234375,0.374023282250762,-0.5254600443869829,-0.5093704217862337
1774159259565705500,4.48370556640625,-0.15842764393687248,0.3090542587339878,0.1405007959716022
1774159259585698300,4.5036982421875,1.160108850832656,0.6390618736475706,0.47466757639124985
1774159259605690400,4.5236904296875,1.8587614890247581,1.235437867256999,-0.7555574515882879
1774159259625683500,4.543683349609375,1.2225310394108295,-0.6275888779968023,-0.49968365196511144
1774159259645676300,4.56367626953125,1.1595618114091455,0.26376784080862997,-0.08609737093709409
1774159259665669400,4.58366943359375,0.564316283134371,-0.7425473825633525,0.6642152388002723
1774159259685662500,4.603662353515625,2.192663773289323,-0.20142448962032794,0.5503467214275151
1774159259705657000,4.623656982421875,0.48441667085886,-0.40916298469305035,0.6468073001425713
1774159259725650200,4.643650146484375,1.150114037975669,0.410569928881526,-0.15901801104545593
1774159259745643300,4.663643310546875,0.5619534995257854,-0.12289397374093532,-0.43638124648630616
1774159259765636000,4.683635986328125,1.0489964272350072,-0.4817126725971698,-0.6803319686036556
1774159259785629000,4.70362890625,0.6788689833790064,-2.1227713218957183,0.0693249537039548
1774159259805622000,4.7236220703125,-0.25914061939939853,-0.9859212546408176,0.19305501294285057
1774159259825615000,4.743614990234375,-3.693347737213969,0.7659148141473531,1.2454958815433084
1774159259845608200,4.763608154296875,-2.8143054333195088,1.7047446472674608,1.5097304630808532
1774159259865601000,4.78360107421875,0.022608137649297713,2.141988648062944,0.3752627609178424
1774159259885594000,4.803593994140625,2.7173803058326245,-1.0078946015179158,-0.8219336384892463
1774159259905587200,4.823587158203125,3.211402132643759,-2.7953105177313087,0.22504041607268152
1774159259925580000,4.843580078125,2.5214012221366167,1.7378911300659179,-1.458574422469735
1774159259945573000,4.863572998046875,0.38505934778898954,1.5069272422283888,-2.3460014006108043
1774159259965566200,4.883566162109375,0.6015037118867039,-0.2151326969772577,-0.6931522872101515
1774159259985559300,4.903559326171875,0.2732781580843031,0.12318857277333736,0.10084558886624873
1774159260005552000,4.92355224609375,-0.29903906067609787,0.893733384808898,-0.23171653283573684
1774159260025545200,4.943545166015625,-1.0678951889723538,1.3369149589598177,-0.4508268282070756
1774159260045538300,4.963538330078125,0.18952435459867117,0.3729553607583046,-0.3532936518244445
1774159260065531100,4.98353125,1.1584705090411007,0.8469535134553908,-0.35346433221623297
1774159260085524000,5.00352392578125,0.9011896921642124,0.5988146189332008,-0.48772155762314795
1774159260105517000,5.02351708984375,0.3513601995438337,0.347583019092679,-0.03721007897555828
1774159260125509000,5.043509033203125,-0.16050671523325144,0.5860732107818126,0.35323951048441227
1774159260145502200,5.063502197265625,0.6721428899943828,-0.6058072542995214,-0.19229718031287193
1774159260165495000,5.0834951171875,-1.1601222217708826,-1.259164195281267,-0.8919780655741691
1774159260185488100,5.103488037109375,0.7929770085960626,0.0947574280589819,-1.326788555612415
1774159260205481000,5.12348095703125,0.11472118867933749,-1.078480880394578,-0.056926294575631614
1774159260225474000,5.14347412109375,-0.2504891839753836,-1.0834113225340842,0.23313801700621842
1774159260245467100,5.163467041015625,-0.3418926254313439,-0.5359393528252839,0.37096623276770113
1774159260265460000,5.1834599609375,-1.1148989322096108,-1.078280973908305,0.8327072536990046
1774159260285453000,5.203453125,-0.4174748859643936,-0.3824386438965797,0.42790348712876436
1774159260305446100,5.223446044921875,-1.8313684551864862,-0.163637487539649,-0.16457827552109955
1774159260325439200,5.243439208984375,-1.9755770196348428,-0.09096505003869533,0.08059402428045868
1774159260345432000,5.26343212890625,0.8270598954617977,0.0391699808716774,-0.42449294803291554
1774159260365425200,5.283425048828125,0.275185306879878,0.559759204351902,-0.3956421166017651
1774159260385418200,5.303418212890625,-0.0047942120065912605,0.3303027984678745,-0.05325944263115525
1774159260405411000,5.3234111328125,0.22298399499952792,0.6007552316069603,0.4213854835368693
1774159260425404200,5.343404052734375,0.5459195161024109,0.618852029311657,-0.05232376921623945
1774159260445397200,5.363397216796875,-0.5390929214853794,0.22458149332404134,-0.5882660446509719
1774159260465390000,5.38339013671875,-0.6178408795077354,-0.788672004878521,-0.08239201361313461
1774159260485383000,5.4033828125,-0.44042204630970955,-0.48109950913488864,0.3614543080568313
1774159260505376000,5.4233759765625,-0.14734448785390705,-0.3730670044392347,0.35334859688207504
1774159260525369000,5.443369140625,0.3003570844721049,-0.5573223325937986,0.14417553896158933
1774159260545362200,5.463362060546875,0.029010442439652978,-0.8635884219139814,0.050115299386531115
1774159260565355000,5.48335498046875,-0.04499412044789642,-0.8033703923165798,0.15799319804236292
1774159260585348000,5.50334814453125,-0.3215080821156502,-0.4306014940410852,0.1888818189114332
1774159260605341200,5.523341064453125,-0.5529266914507374,-0.45801790875494475,0.1926629448853433
1774159260625334000,5.543333984375,-0.7418230868767947,-0.2113514248728752,0.5526569711312651
1774159260645327000,5.5633271484375,-0.330531346526742,0.16944237442612647,0.8195847372755408
1774159260665320200,5.5833203125,-0.4075362602740526,0.16939385910928248,0.5044187176629901
1774159260685313300,5.603313232421875,-1.1230646299432963,-0.3445850063204765,0.3023391251347959
1774159260705303600,5.623303466796875,1.5134347244262694,0.6823439660131931,0.36841318728402256
1774159260725296400,5.64329638671875,2.1322662954717875,0.4955266784161329,1.119601995334029
1774159260745289500,5.66328955078125,0.27915362598896026,-0.15321663129031657,0.7567078637324273
1774159260765282600,5.683282470703125,1.0116391948737204,0.018463292929530143,0.2320429152458906
1774159260785275400,5.703275390625,1.5322154127418994,0.03220247994661331,0.04784267827942967
1774159260805268500,5.7232685546875,0.5627817670434713,-0.16474924817383288,0.3135908792503178
1774159260825261600,5.743261474609375,-1.1709223596613854,-0.14809797310233117,0.19391426012068985
1774159260845254700,5.763254638671875,-0.9073867201734334,-0.01557166314125061,-0.14722645096480846
1774159260865247500,5.78324755859375,0.4095048569332808,-0.37140579322874545,0.4398381089419126
1774159260885240600,5.803240478515625,2.163041957485676,1.128518876761198,0.8051968770913779
1774159260905233700,5.823233642578125,0.03177110279202461,0.1509188757419586,1.571132441765815
1774159260925226800,5.843226806640625,0.8919143526881933,-0.37702597119808196,1.2960365667350588
1774159260945219600,5.863219482421875,1.8211439982920885,0.11726970411837101,0.5153203431665897
1774159260965212700,5.883212646484375,0.31935704156160355,1.445396376466751,0.07335077515393496
1774159260985205800,5.903205810546875,1.7170003177285194,0.5566740978181361,0.13352657304480672
1774159261005198600,5.923198486328125,0.5506792413175106,1.1615391028314828,0.33822876916155215
1774159261025191400,5.94319140625,1.0091875639379024,1.21092944894433,0.6191137489877641
1774159261045184500,5.9631845703125,1.3405623755514622,0.49130643037259575,0.8535771693788469
1774159261065177600,5.983177490234375,1.3561013054668902,0.2586643801897764,1.1111560924194752
1774159261085170400,6.00317041015625,0.19928808037983253,0.9416466441065072,0.776074535242468
1774159261105163500,6.02316357421875,-0.4819032267332077,1.2502595888137817,0.5492625063873827
1774159261125156600,6.043156494140625,0.647263300281763,1.4611317057371138,0.7446712428495288
1774159261145149400,6.0631494140625,-0.108211368393898,2.0060937384515998,0.09931640653759241
1774159261165142500,6.083142578125,1.1507482442259789,0.2218430082708597,-0.1901825262464583
1774159261185135600,6.103135498046875,-1.172650279432535,-0.9471575164824724,0.1413569744095206
1774159261205128700,6.123128662109375,-0.2092904006898403,-3.180812056329846,1.0082415152594446
1774159261225121500,6.14312158203125,-0.6689969931840897,-1.259315586450696,1.0266891722284257
1774159261245114600,6.163114501953125,-1.6050971090793609,-2.3143407724559304,0.5472887220963836
1774159261265107700,6.183107666015625,-3.7690181874871254,-3.156500037372112,0.0889639393493533
1774159261285100500,6.2031005859375,-2.663248902672529,-1.474449452471733,-0.9173239576242863
1774159261305093600,6.22309375,-2.4335014048874375,-0.5492138449400663,-1.7749876656644046
1774159261325086700,6.243086669921875,-2.7322365141808986,1.1996218729883432,-2.3628470292106267
1774159261345079600,6.26307958984375,-1.6054676959574221,1.4806553213745355,-2.6585972774744033
1774159261365072400,6.283072265625,-0.016475333982706068,1.061177278894186,-1.1288232665352522
1774159261385065500,6.3030654296875,3.355475964796543,0.8742723130136728,0.6863477948270738
1774159261405058600,6.32305859375,-0.04181311579160392,0.2257698263257742,0.779961313547939
1774159261425051600,6.3430517578125,0.5470142160039395,-0.9125345313906669,-0.06625760202258825
1774159261445044500,6.36304443359375,0.6407177510958164,-0.307425780749321,-0.18857567557170987
1774159261465037600,6.38303759765625,0.29663324164338406,-0.4681207850962877,-0.6072092300519347
1774159261485030700,6.40303076171875,0.23858897588849065,-0.7790326543956995,-1.0103180292725562
1774159261505023500,6.4230234375,0.16779636078476906,-0.8873521593391894,-0.543892796047777
1774159261525016600,6.4430166015625,0.2425730405559763,-0.08183949429690837,-0.1725650364913046
1774159261545009700,6.463009765625,0.8904338318068533,-0.5192208577364683,-0.403620840395987
1774159261565002800,6.483002685546875,-0.18314820716287938,-0.6979600528180598,-0.5965588028304278
1774159261584995600,6.50299560546875,0.8185644543170928,-0.5416963089168071,-0.8797956064797937
1774159261604988700,6.52298876953125,0.9913058702886104,-0.3785568340271711,-0.894625511343032
1774159261624981800,6.542981689453125,1.2503776622354983,-0.20569266845881937,-0.8453732585266232
1774159261644974600,6.562974609375,0.05041734650644939,-0.3832832780271768,0.03475757125690579
1774159261664967400,6.582967529296875,-0.6705728641986847,-0.17945932604968548,0.44496611948013304
1774159261684960500,6.60296044921875,0.5301479099422693,0.011097148075699805,-0.020771277610957622
1774159261704953300,6.622953369140625,0.46784781337380404,-0.6701683750510216,-0.3501652906708419
1774159261724946200,6.6429462890625,0.9844880069673061,-0.614735826164484,-0.6048544836193323
1774159261744939300,6.662939208984375,1.983295631188154,-0.2805161465138197,-0.5412497341930866
1774159261764932400,6.682932373046875,1.4535907888382673,0.1658499028921127,0.06879398863241076
1774159261784925200,6.70292529296875,1.6121347526311873,0.6152209793329239,0.5069485284015536
1774159261804918300,6.722918212890625,1.032321771287918,-0.37336101894974705,0.30906960243359205
1774159261824911400,6.742911376953125,-0.3285433875799179,-0.6534563097029924,-0.05924874617382884
1774159261844904400,6.762904541015625,0.9949497066836803,-0.07762099981904029,-0.3417848542079329
1774159261864897300,6.782897216796875,1.103482562116906,0.3734498662769794,-0.38706075073927637
1774159261884890400,6.802890380859375,0.9296247093360871,0.5283072505116463,0.05173661697804927
1774159261904883500,6.822883544921875,0.8846323789864778,1.0147340921491383,0.01298486151844263
1774159261924876300,6.842876220703125,1.4456032972157,0.9046481620550155,0.9895876681938767
1774159261944869400,6.862869384765625,0.7355886494666337,0.8953864127129316,0.7617883818671107
1774159261964862500,6.882862548828125,0.43837271256446836,1.230374154126644,-0.16888590958714483
1774159261984855300,6.902855224609375,0.3540571835428476,1.0561141502857208,-1.370181414876133
1774159262004848000,6.92284814453125,-0.7044803944975138,1.3880214613407849,-1.554183791182935
1774159262024841200,6.94284130859375,-0.44048225206434727,1.9689917960256338,-1.139147165216133
1774159262044834300,6.962834228515625,-0.06279284852147102,1.1589414875537156,-0.7028044241093099
1774159262064827400,6.982827392578125,0.004081130692147417,0.07856149553954601,-0.35294439999535676
1774159262084820200,7.0028203125,0.012581249153614044,-0.5295347464799881,0.11629231045357882
1774159262104813300,7.022813232421875,-0.2569078919112682,-1.3962375010222197,0.6017904198735952
1774159262124806400,7.042806396484375,-1.1085177067399024,-2.0194126542299986,0.5193197880662977
1774159262144799200,7.06279931640625,-1.350517952376604,-2.046743144226074,-0.019691446484997866
1774159262164792300,7.082792236328125,-1.537699397110939,-1.6832839260876178,-0.48662674812376494
1774159262184785400,7.102785400390625,-2.3700503847181795,-0.9779436998903751,-0.9719627257846295
1774159262204778500,7.122778564453125,-3.2074528104960915,-0.6775538091272115,-1.1424981561444698
1774159262224771300,7.142771240234375,-2.6046996830701827,-0.08094751389324664,-0.5829345474299044
1774159262244764400,7.162764404296875,-0.03709317231433233,0.36374914099574085,0.47959918757453557
1774159262264757500,7.182757568359375,1.196291267260909,0.7266442955106497,0.6306394246738404
1774159262284750300,7.202750244140625,-0.4216922113984823,1.1967974632173777,0.5742538128461688
1774159262304743200,7.2227431640625,0.17840952473580837,0.7539794616818427,0.8648932209022343
1774159262324736300,7.242736328125,-0.1677513525992632,0.1732446893185377,0.7719444497004151
1774159262344729300,7.262729248046875,0.01627308940887451,-0.47798400746285913,0.508194582939893
1774159262364723500,7.282723388671875,-0.3016261545598507,-0.8685551044106483,0.21386106960624454
1774159262384716300,7.30271630859375,-0.4304325672149658,-1.1140344243347644,0.2839922981917858
1774159262404709400,7.32270947265625,-0.43477556485533714,-0.7642688005059957,0.6205551799677312
1774159262424702500,7.342702392578125,0.16195815615057943,0.26974633069634435,0.6932821241348981
1774159262444695300,7.3626953125,0.11291969221532344,0.11678805808126926,0.6817826788686215
1774159262464688400,7.3826884765625,0.08501052554845809,-0.08232406294345855,-0.16464111162424086
1774159262484681500,7.402681396484375,-0.21989012063741684,-0.1508195070207119,-0.5348835601620375
1774159262504674600,7.422674560546875,-0.14240823702812194,-0.49698447600901124,0.14086100758612155
1774159262524667100,7.442667236328125,0.2320037522792816,-0.10738310087621211,0.44650823435559867
1774159262544660200,7.46266015625,0.28747604865431786,-0.16817454644739627,0.43809842566773294
1774159262564653300,7.4826533203125,0.5072019186407327,-0.3273211523085832,1.0753462356306611
1774159262584646100,7.502646240234375,0.07353752989768982,-0.06818038677871227,1.4983447073221206
1774159262604639200,7.52263916015625,0.482255108910799,-0.03563420796096325,0.6071731358252466
1774159262624632300,7.54263232421875,-0.041032258479064325,-0.1023690721064806,0.29458149674534795
1774159262644625400,7.56262548828125,-0.4397749805778265,-0.22642098371088504,0.543859916691482
1774159262664618200,7.5826181640625,0.17231120786070822,0.13756547317206858,0.6418975354649126
1774159262684611300,7.602611328125,0.36434652236700055,0.271966344833374,1.0699543134592473
1774159262704604400,7.6226044921875,0.42584640846848487,0.720375298243761,1.0925504684098064
1774159262724598500,7.6425986328125,0.3476689438104629,1.0973258661180734,1.101606904438138
1774159262744591400,7.66259130859375,1.093020277878642,1.580804963865876,0.943023485417664
1774159262764584200,7.682584228515625,0.7292331429600715,1.3699468754678963,0.8082719006225466
1774159262784577300,7.702577392578125,0.305295764716994,1.142901622378826,1.4241295704238115
1774159262804570400,7.7225703125,0.31282559396624565,1.1456821930080652,1.8529228459991514
1774159262824563200,7.742563232421875,-0.21068041200982404,1.152027178120613,0.9447422720342874
1774159262844556300,7.762556396484375,-0.5526199270565062,2.0743805082142353,0.007824702276289463
1774159262864549400,7.78254931640625,-0.2572925438473001,2.3118337580710646,-0.49210693310052156
1774159262884542200,7.802542236328125,-0.5615793324511498,1.4138152432888746,-0.8310939732834697
1774159262904536300,7.822536376953125,-0.49372803149633104,-0.025073650979995726,-0.5641771669246256
1774159262924529400,7.842529296875,-0.5994143383920192,-1.1129840384989975,-0.38986820937544103
1774159262944522500,7.8625224609375,-1.0157130932491272,-2.051732038554549,-0.6283925955951214
1774159262964515300,7.882515380859375,-1.313658002012968,-2.7152766115516425,-1.1759043127924202
1774159262984508200,7.902508056640625,-1.0098854830741881,-3.1158155602842568,-1.3460254632629454
1774159263004501200,7.922501220703125,-0.8503004857957362,-1.6485820305407046,-1.8266871655024588
1774159263024494300,7.942494384765625,0.15550499795582146,-0.4488414996087551,-2.1218859173633158
1774159263044487200,7.962487060546875,0.5691758154621347,0.7103419800072908,-1.7612620687812566
1774159263064480300,7.982480224609375,1.0051333201110362,1.7915759585022926,-1.268499448250979
1774159263084473300,8.002473388671875,0.47329563045091927,1.3101543778061866,-0.7795549247041345
1774159263104466400,8.022466552734375,0.17315993364453314,0.4327706547737121,-0.42345849041864275
1774159263124459300,8.042459228515625,-0.23793891448192298,-0.32837796788513657,-0.21941183560118077
1774159263144452400,8.062452392578125,-0.5886087936740368,-0.9779881235539912,0.2695934782221913
1774159263164445400,8.082445556640625,-0.25537637149505316,-1.284073595610261,0.3377548680394888
1774159263184438300,8.102438232421875,0.27569672700073566,-1.1063766030579805,0.22599589016661045
1774159263204431400,8.122431396484375,0.9362134400766342,-0.4043815956354141,-0.10500497356802224
1774159263224424400,8.142424560546875,0.8798656029760837,0.09758417591750622,-0.3877067935578525
1774159263244417500,8.16241748046875,0.4613887734275311,-0.34786417412161824,-0.7116793660908937
1774159263264410400,8.182410400390625,0.6171218445181846,-0.8020768453747034,-0.725784609941393
1774159263284403200,8.2024033203125,0.6142542531926185,-0.6806266407012939,-0.9589777181357145
1774159263304397300,8.222397216796875,0.47908575815968213,-1.1589303816378116,-0.4656000344470143
1774159263324390400,8.242390380859375,0.6764554924964904,-0.8435241235285997,-0.3121894880197942
1774159263344383200,8.26238330078125,0.48950902556180953,-0.44677872186005113,-0.2807248208284378
1774159263364376300,8.282376220703124,0.6992576914131641,-0.19990414818525312,0.1725507157050073
1774159263384369400,8.302369384765624,1.3192144670963286,-0.1835889732003212,0.3833503519140184
1774159263404362500,8.322362548828124,0.8794505924344063,-0.19104513442516327,0.3031196079879999
1774159263424355300,8.342355224609374,1.6912895378887651,-0.6025070437103509,0.7970914581775664
1774159263444348400,8.362348388671874,0.5202724126160144,-0.569766803625226,1.3272721013456583
1774159263464341500,8.382341552734376,1.1188427013993263,-0.0798123723834753,0.3082948186688125
1774159263484334300,8.402334228515626,0.8462626085817814,0.01562485463321209,-0.7743415739700198
1774159263504327400,8.422327392578126,0.9893196649074554,-0.7490238851010799,-0.23663389629796147
1774159263524320300,8.4423203125,1.2539093434929847,-0.44333997958302496,0.01087824462801218
1774159263544313300,8.462313232421875,0.815654704350233,0.3021604075670242,-0.4869112641535699
1774159263564306200,8.48230615234375,1.2164590260207653,0.48686698662042616,-0.5632619517758488
1774159263584299300,8.50229931640625,1.5867010361671448,0.5189356110543012,0.11616802648678422
1774159263604292400,8.522292236328125,1.2917208954930304,0.8659533974796533,0.6563271889641881
1774159263624285200,8.54228515625,0.9743020554523915,1.175320959946513,0.2844714600108564
1774159263644278300,8.5622783203125,0.8770528836429119,0.6979109529793263,0.1197850479401648
1774159263664272400,8.5822724609375,0.5901975972354412,1.1962749006479978,-0.22501900795847177
1774159263684265500,8.602265380859375,0.6206721574109048,2.497966570535302,-1.2742010208934544
1774159263704258600,8.622258544921875,-0.0467114092271775,2.8683950431644916,-1.7145185839153825
1774159263724251000,8.6422509765625,-1.237858372402191,1.1218325308650732,-1.308802524805814
1774159263744244000,8.662243896484375,-1.1728653834879397,-0.679611910700798,0.07384045836701988
1774159263764236800,8.68223681640625,0.2649229291278869,-2.088188084292412,0.921156229263544
1774159263784229600,8.702229736328125,-0.6718377695679664,-2.4142104289621114,0.2213202995710075
1774159263804222700,8.72222265625,-1.4281295998454093,-1.9311925189852714,-0.17897899518683552
1774159263824215800,8.7422158203125,-2.4572765404894947,-0.9202017050176858,-0.6523058244936167
1774159263844208600,8.762208740234374,-2.1897359031438826,-0.22208441581130026,-1.0751102349177002
1774159263864201700,8.78220166015625,-2.807787137466669,0.16117840394973754,-0.8662031344570219
1774159263884194800,8.80219482421875,-0.8922470187086612,0.650049716129899,-0.5533402772203088
1774159263904188000,8.82218798828125,-0.45915253880806267,0.6635422349095345,-0.16165625059455632
1774159263924180700,8.8421806640625,0.5196937359452247,0.29104981548786163,0.48819282839670775
1774159263944173800,8.862173828125,0.23209267267175018,0.5272621253728866,0.45842064433693885
1774159263964167000,8.8821669921875,0.15177454272322355,0.489327239254117,0.22375950941666958
1774159263984159700,8.90215966796875,0.12101466280035673,-0.10192249738276005,-0.06279606339186429
1774159264004153900,8.92215380859375,-0.5737549964785575,-0.7232043841898441,-0.10658771271482109
1774159264024146700,8.942146728515626,-0.5046177473664284,-0.9841332021802663,0.12914338952451943
1774159264044139800,8.962139892578126,-0.3766133718091994,-0.5877881980061531,0.11117387146130203
1774159264064132900,8.9821328125,-0.43116080842427906,-0.367773574206233,0.0492673042550683
1774159264084125700,9.002125732421876,-0.21825338628105817,-0.12985212231576443,0.44847149725258345
1774159264104118800,9.022118896484375,-0.17759886594004928,0.046971010011434555,0.6014778467930852
1774159264124112000,9.04211181640625,-0.3642752106964588,0.07185235328972339,0.4076880898348987
1774159264144104700,9.062104736328125,-0.3343932826519012,-0.5628612620204687,0.6618053281143307
1774159264164097800,9.082097900390625,0.008479147597029805,-0.38995793348550795,0.5241419475257396
1774159264184091000,9.1020908203125,-0.28232633774094285,-0.4512210882216692,0.7107958612546325
1774159264204084000,9.122083984375,0.10445764188356697,-0.3506897529363632,0.5944258824549615
1774159264224076800,9.142076904296875,-0.11617255653142929,-0.043835050073266026,0.3187777803689241
1774159264244070000,9.16206982421875,0.09405307918190955,-0.5354390020877122,0.4286369159698486
1774159264264063000,9.18206298828125,-0.29514965202212334,0.008927987343072891,1.0360244251981376
1774159264284056800,9.202056884765625,0.14187171899862586,0.14776771823465823,0.8493316407635807
1774159264304049700,9.222049560546875,0.5167454805988818,-0.24650983201563356,0.6020452714174985
1774159264324042800,9.242042724609375,0.08314816574268043,-0.31478958751559255,0.5734057446494698
1774159264344035800,9.262035888671875,0.16394903770685196,0.08962824847698211,0.8551458800002932
1774159264364029000,9.28202880859375,0.3803659292757511,0.9440735789924859,0.9014768385425209
1774159264384021800,9.302021728515625,0.46362288915514943,1.045546579042077,0.8506979606807231
1774159264404014800,9.322014892578125,0.6615536183755845,0.21777415139675138,0.7526093423724174
1774159264424008000,9.342008056640625,1.1158698230683803,0.08931552926599978,0.5986603051543236
1774159264444000800,9.362000732421874,1.4606383692622185,1.5001146396040916,0.49839726541638374
1774159264463993900,9.381993896484374,0.9614460810106247,2.4416297662854194,0.8153846552371978
1774159264483987000,9.401987060546874,0.379290482063964,1.5322341174423695,1.1013464999362825
1774159264503980000,9.42197998046875,0.09180727301649749,1.4406044660151005,0.9893716873556375
1774159264523972900,9.441972900390626,0.0877859085459262,1.4928320813804865,0.30537527796030045
1774159264543965700,9.461965576171876,-0.4442436504244804,1.6520318787336348,-0.4238917672693729
1774159264563958800,9.481958740234376,-0.11903320665955543,1.4200819024682043,-0.7309501760110259
1774159264583953000,9.501952880859376,-0.2542764474291354,0.747471979483962,-0.8119216553017496
1774159264603945700,9.52194580078125,-0.5328315960682928,-0.0897375540703535,0.08186696682572364
1774159264623938800,9.541938720703126,-0.5965349835634232,-1.576821447187662,0.4641545118138194
1774159264643932000,9.561931884765626,-1.1467664811134337,-3.0028076052635906,0.4200692863717675
1774159264663925000,9.581925048828126,-0.5096140943489968,-2.353066516691446,-0.5169079046189785
1774159264683917800,9.601917724609375,-0.45547596918717026,-1.3438847979724406,-1.359764504149556
1774159264703911000,9.621910888671875,0.05045242238640785,-0.8688327523082494,-2.1094439305499195
1774159264723903500,9.641903564453125,0.9897941505514085,0.13955460116267204,-1.9331845695853231
1774159264743896600,9.661896484375,0.9293173238873481,1.1556634887963533,-1.8832915346473453
1774159264763889700,9.6818896484375,0.13544658132195472,0.4138841679960489,-1.4114876771241425
1774159264783882500,9.701882568359375,-0.5940307456575333,0.09787292973101139,-0.7957023419067263
1774159264803875300,9.721875244140625,-0.8103611279867589,-0.24436112954914568,-0.07787877397239208
1774159264823869400,9.741869384765625,-0.10209142420887947,-0.11762100177407264,0.3841989315673709
1774159264843862500,9.761862548828125,0.37400983824729916,-0.4721119005590677,-0.17735709307342767
1774159264863855400,9.78185546875,0.2968589401580393,-0.8586135561108589,-0.5040133517324924
1774159264883848400,9.801848388671875,0.17314166733548045,-1.3097703469246624,-0.32476796069443226
1774159264903841500,9.821841552734375,0.4143021011471748,-1.163998770943284,-0.5245052278801798
1774159264923834600,9.841834716796875,0.47515214503780007,-1.0544131915867327,-0.7853118807956576
1774159264943827500,9.861827392578125,-0.07103226907849311,-1.1959136661201715,-0.4764674654200673
1774159264963820500,9.881820556640625,0.10573752562627196,-0.8850164098680019,-0.6467240788385271
1774159264983813600,9.901813720703124,0.5869860878430306,-0.8274269752085208,-0.9150658034339547
1774159265003806500,9.921806396484374,0.6595815145850181,-1.0882844815284014,-0.34142917263805866
1774159265023799300,9.94179931640625,0.5802092871844768,-0.9656108725398779,-0.24022885205000638
1774159265043792400,9.96179248046875,0.8065772255338728,-0.7094213580310345,0.5914397062510252
1774159265063786500,9.981786376953124,0.457584778034687,-0.21883856575787067,-0.00554828177690506
1774159265083779300,10.001779296875,0.6961715619660913,-0.6295598858088255,0.06531915212869643
1774159265103772400,10.0217724609375,0.4712545530773699,0.1941238112181425,-0.6071496088191867
1774159265123765500,10.041765625,1.0579318672321736,-0.04595101931393146,-0.5589841283261776
1774159265143758600,10.061758544921876,1.0333366474188863,-0.9053162705749273,0.24838760858625172
1774159265163751400,10.08175146484375,1.6105648729659616,-0.7660860790610313,-0.1405102944523096
1774159265183744500,10.10174462890625,1.427759012967348,-0.1639636507540941,-0.5124044557198881
1774159265203737600,10.121737548828126,0.6601998656790703,0.6552431931197643,0.06276333016604185
1774159265223730700,10.141730712890626,1.099917051655054,1.730714370304346,0.014831658428907393
1774159265243723500,10.1617236328125,0.26743147788271304,-0.020290508356690405,1.0110270543247462
1774159265263716400,10.18171630859375,-0.18124401750937102,1.3749883767664433,0.903123436705768
1774159265283709400,10.20170947265625,0.40501989353895185,1.5536837327063082,-0.17377075901925562
1774159265303703600,10.22170361328125,0.11403788259029388,2.159988415133953,-1.5904925374045966
1774159265323696400,10.2416962890625,0.17736980642452835,2.4212205999851224,-2.045838888862729
1774159265343689500,10.261689453125,-0.011066314546018838,1.519685016992688,-1.7040923208385705
1774159265363682600,10.2816826171875,0.001042640920728445,0.987500048264861,-0.7177677460938692
1774159265383675400,10.30167529296875,0.5278885867081582,-0.5330939002662897,-0.4588990755036473
1774159265403668500,10.32166845703125,-0.4168437484540045,-2.1149942581534384,-1.009251861345768
1774159265423661600,10.34166162109375,-1.3699172109819948,-2.1706202837854622,-0.4403916511714458
1774159265443654700,10.361654541015625,-1.5595581776976584,-0.061872811067104336,0.040732115621864795
1774159265463647500,10.3816474609375,-1.2321103302694856,0.3294184168487787,0.4423264186263084
1774159265483640300,10.401640380859375,-2.3022598740398883,-0.7328256144940852,-1.2002645548060535
1774159265503633400,10.42163330078125,-1.9053579666353762,-0.9495295063108206,0.601065320469439
1774159265523627500,10.44162744140625,-1.4325440552867947,0.01238835693001747,0.8315823413223028
1774159265543620400,10.461620361328125,-1.7904488541685044,-0.33662381818294523,1.3004267645180225
1774159265563613400,10.481613525390625,-0.8215431778669356,2.0046675050407647,-0.1169043779373169
1774159265583606500,10.5016064453125,1.0722538225732743,0.6051847384870052,-1.4806255107581614
1774159265603599600,10.521599609375,1.3945650377653538,-0.3272317204594612,-1.1134133698269724
1774159265623592400,10.541592529296874,0.586318709975481,-0.4210135814845562,0.03674772216081619
1774159265643585500,10.56158544921875,-0.6933573813281952,-0.2971948941141367,0.6274006619483232
1774159265663578600,10.58157861328125,-1.085095914620161,-0.6136182203114032,1.3005243796736001
1774159265683571500,10.601571533203124,-1.2351625574469565,-0.36301439698040483,1.7497423113793134
1774159265703564300,10.621564208984376,-0.7465184781514108,-0.3200964617520571,-0.2405178981244564
1774159265723558700,10.64155859375,-0.9468681781470775,-0.8784259255617857,-0.4818552959382534
1774159265743551700,10.6615517578125,-0.2906850738286972,-0.6012298633813857,-0.16198767450600862
1774159265763544800,10.681544921875,0.2757635451592505,-0.732516402414441,-0.2665034032523632
1774159265783537700,10.70153759765625,-0.3995324020385742,-0.7064958259731531,-0.28584581710398194
1774159265803530800,10.72153076171875,-0.11129077583923935,-0.10980769767463207,0.725517045046389
1774159265823523800,10.74152392578125,-0.12380290527939795,0.17469664169251917,0.7001824050426483
1774159265843516700,10.7615166015625,0.09152896753177046,-0.06516016217470169,0.8307219251006841
1774159265863509800,10.781509765625,0.5171507734641433,-0.5131926834881305,0.6779451465323567
1774159265883502800,10.8015029296875,0.30173823663219806,-0.13482581907510757,0.7085261627569794
1774159265903495700,10.82149560546875,0.9731614340499043,-0.03134147920310497,0.40295682352930307
1774159265923489800,10.84148974609375,-0.9431821831107139,-1.0267091921031475,1.6016715185448527
1774159265943482600,10.861482666015625,0.37465281232595443,0.14394494507610797,0.14040887990444897
1774159265963475700,10.881475830078125,0.8047568782389164,-0.5225462027668952,0.07356207981705665
1774159265983468800,10.90146875,0.23791429149731994,0.3522457502067089,0.2604243755996227
1774159266003461600,10.921461669921875,0.9959539883553982,0.7698977463036775,-0.17441636344641445
1774159266023454700,10.941454833984375,0.48173970673456784,0.10046353074610233,0.0482823848709464
1774159266043447800,10.96144775390625,0.25803485011458394,0.02355155597925186,0.4770823824480176
1774159266063441000,10.98144091796875,1.0809401101149618,0.27594693890213967,0.9410723513498902
1774159266083433700,11.001433837890625,0.7912472621940075,0.4001917427301407,1.3629179997444152
1774159266103426800,11.0214267578125,1.44006436778903,1.3816682929217814,0.292434840105474
1774159266123420700,11.041420654296875,1.6180572745479642,1.3595973308891056,-0.08382336159050464
1774159266143413800,11.061413818359375,0.6727647482197732,1.4244891975164413,0.5528688603162765
1774159266163406600,11.081406494140625,0.12557283756136894,1.6040595827251671,0.9811734755918383
1774159266183399700,11.101399658203125,-0.577318241918087,1.1947644960850476,1.369149003088474
1774159266203392800,11.121392822265625,-0.6527753417015075,1.3179524843364954,0.8143550199285149
1774159266223385900,11.1413857421875,-0.2285210247300565,1.1672405293434858,-0.11269406676590442
1774159266243378700,11.161378662109374,-0.4893301618635654,0.8716957405239343,-0.289790170815587
1774159266263371800,11.181371826171874,-0.41685646180510516,0.5067740486174822,-0.08218845386505126
1774159266283364900,11.20136474609375,-0.6408614704154432,-0.6482102257430553,0.24817864201068876
1774159266303357700,11.221357666015624,-1.8487538897514342,-1.0458920314788818,0.12405337290912866
1774159266323351600,11.2413515625,-1.54985263011083,-1.649370550569892,-0.4830339843288064
1774159266343344600,11.2613447265625,-1.8164625624775885,-1.9484826764822005,-0.71181672873497
1774159266363337700,11.281337646484374,-1.0863513215087353,-1.3173527648776768,-0.6423559467568993
1774159266383330600,11.30133056640625,-0.447390716278553,-1.4421668930262326,-1.6055392998889089
1774159266403323600,11.32132373046875,0.3286836728334427,0.32145956679880616,-2.2989599557116627
1774159266423316700,11.341316650390626,0.11909282789230347,0.661719111135602,-2.217338488079607
1774159266443309800,11.361309814453126,0.0168063195027411,0.46368192586600776,-0.8019365601211785
1774159266463302700,11.381302734375,0.014182985261827706,-0.21388474274277686,0.304682327260077
1774159266483295700,11.401295654296876,-0.10144947304353118,-0.6113356623321772,0.12399199811071157
1774159266503288800,11.421288818359375,-0.15956731549128889,-0.663442281666398,-0.309727043429017
1774159266523282700,11.44128271484375,0.0890508869804442,-0.34261399850845337,-0.43418227513730523
1774159266543275500,11.461275634765625,0.21640395902208984,-0.6205331142663956,-0.439589394877851
1774159266563268600,11.4812685546875,0.213625215023756,-0.7661790180414915,-0.13554244291186332
1774159266583261700,11.50126171875,0.3903459829550236,-0.9295435338586568,0.22641367718726396
1774159266603254800,11.5212548828125,0.1657680698275566,0.5578291130721569,0.2351326979547739
1774159266623247600,11.54124755859375,1.1868681898772715,-0.22506197031736372,-0.7896563397407531
1774159266643240700,11.56124072265625,0.29776253793425855,-0.6495645629614591,-0.36121290051639077
1774159266663233800,11.58123388671875,0.536019432324171,-1.445083072733879,-0.2916545033827424
1774159266683228000,11.601227783203125,0.3568634000699967,-0.6104699854135512,-0.11217296550124883
1774159266703220500,11.621220458984375,0.41227961887624115,-0.32364743223190306,0.48770285292267795
1774159266723214000,11.641214111328125,0.3650714025754481,-0.3039572278559208,0.3680287180110812
1774159266743207200,11.661207275390625,1.3345289406061172,-0.8125275122404098,0.279575650793314
1774159266763200000,11.681199951171875,0.9506640632987022,-0.49602936724126334,0.016174012948572635
1774159266783193000,11.701193115234375,1.5491934355497359,-0.2632704126805067,-0.39292584338039155
1774159266803186200,11.721186279296875,1.1196575249135494,-0.7615402523249387,-0.03892506619989872
1774159266823179000,11.741178955078125,1.567138257563114,-0.3343529506415128,0.19130816927552222
1774159266843172000,11.761172119140625,0.6832639304023236,-0.07154431025385856,0.38258594341278074
1774159266863166200,11.781166259765625,0.9080980102479458,0.1407715757369995,0.22731442541927097
1774159266883159000,11.801158935546875,0.9897054493546485,-0.41044367215335364,-0.26506927879601716
1774159266903152000,11.821152099609375,1.1424304977357387,-0.4250730860084295,-0.2700748319983482
1774159266923145000,11.84114501953125,0.788615890777111,0.40950843712985513,-0.7446157132700085
1774159266943138000,11.861137939453124,0.8022960410833359,1.8205577228367327,-0.9103370213463902
1774159266963131100,11.881131103515624,0.8181388493161648,1.453537012824416,-0.7972422648251056
1774159266983124000,11.9011240234375,0.03680624741502106,1.313758539777994,-0.30631577368080615
1774159267003117000,11.921116943359374,0.03837035492658615,2.4349387442141768,-0.8452537238001823
1774159267023110100,11.941110107421874,0.08453107146844267,1.7511738054871557,-1.0500376068510116
1774159267043104300,11.961104248046874,0.4094833026885986,0.9394541024982929,-1.2340788538634777
1774159267063097000,11.98109716796875,-0.7278362087089568,0.24790625481009482,-1.2839482156649231
1774159267083090200,12.001090087890624,-1.3571896852254868,-0.03404489294290542,-0.7821785512059927
1774159267103083000,12.0210830078125,-0.005651157629489898,-0.637509383508563,0.49744683282375335
1774159267123076000,12.041076171875,-0.909811901493743,-1.1720809551119804,1.4425494626030324
1774159267143069000,12.06106884765625,-1.168424186170101,-1.2996394135326146,0.34584026707857846
1774159267163062000,12.08106201171875,-2.7730981014013287,-0.7951315562814474,-0.247182324449718
1774159267183055000,12.10105517578125,-1.9721230797886846,-0.3151420542150736,-0.39036768333017824
1774159267203049200,12.12104931640625,-1.2039187664646656,-0.2953910595625639,-0.4023927599057555
1774159267223042000,12.1410419921875,-1.0827238517265767,0.12177110719084738,-0.3579901390776038
1774159267243035100,12.16103515625,-0.3168821758806705,0.42223055605888365,-0.2046612795844674
1774159267263028200,12.1810283203125,-0.25766302112750705,0.7283937695264816,-0.43553105939775705
1774159267283021300,12.201021240234375,-0.013093217263743281,0.3832189806193113,0.446486168654263
1774159267303014100,12.22101416015625,-0.22994272809624672,-0.08870353484749793,0.27702771987617014
1774159267323007200,12.24100732421875,-0.37639344544820486,-0.15109130969941614,-0.11609013894498348
1774159267343001000,12.2610009765625,0.22871282097510992,-0.8769207816958426,-0.38389293435811994
1774159267362994200,12.280994140625,0.14577033387236296,-0.5192565135717392,0.3500786353006959
1774159267382987000,12.300987060546875,-0.0987479589998722,-0.36105332604050633,0.1592486049309373
1774159267402980000,12.32097998046875,-0.8875530887387693,-0.6380044735491276,0.7084963521406054
1774159267422973200,12.34097314453125,0.09739888247847557,-0.03609656477570534,0.8052414468854665
1774159267442966300,12.36096630859375,-0.023560835264250634,-0.08221475735008717,0.9048115359231829
1774159267462959000,12.380958984375,0.26445881874747573,0.053040100792050356,0.4427800076127052
1774159267482952200,12.4009521484375,0.4585843104660511,-0.29037177009582515,-0.1550590442866087
1774159267502946000,12.420946044921875,0.6219605167210102,-0.8973112432956695,-0.3807534672886133
1774159267522939100,12.440939208984375,0.8514952485382556,-0.5004530289024114,-0.5564259682759642
1774159267542932000,12.460931884765625,1.6815712769508362,-1.4278770863890646,-1.0333289025038481
1774159267562925000,12.480925048828125,1.2146784992795436,-1.0816425592958927,2.560123459240794
1774159267582918100,12.500918212890625,0.6620739159226418,0.18003098845779894,1.4735902052938936
1774159267602911200,12.5209111328125,-0.04003858039975166,-0.24922142906188963,0.8077554755330085
1774159267622904000,12.540904052734374,0.014506664258241653,-0.0847919143617153,1.1550167153254152
1774159267642897200,12.560897216796874,-0.02477320672869682,-0.6399217053472995,0.8039958307385444
1774159267662891300,12.580891357421875,1.0498539208471775,-0.6665478464663028,0.06766776108145714
1774159267682884000,12.600884033203124,1.8315221844434737,-0.610321516853571,0.2805702147886157
1774159267702877000,12.620876953125,1.329695236839354,1.070347258299589,0.12125146723091601
1774159267722869800,12.640869873046874,0.9098806558810174,1.3179635902523994,0.4235109512582421
1774159267742862600,12.660862548828124,1.0250327102582901,1.417732708993554,0.6531696017161012
1774159267762855700,12.680855712890626,0.964718161483854,0.5788076036930084,1.9402590380162
1774159267782848500,12.7008486328125,0.11956402560062705,0.5045458511739969,2.570051563537121
1774159267802841600,12.720841552734376,1.9516846873939036,1.6518074223279953,2.1000889499664304
1774159267822835700,12.740835693359376,1.4084277050316334,2.459273559525609,0.9085939770713448
1774159267842828800,12.760828857421876,2.2312217597424984,2.819715475669503,0.20718232249468563
1774159267862822000,12.78082177734375,1.2130430800974368,2.8052514815092087,0.12272884630709886
1774159267882814700,12.800814697265626,-0.16134093756768852,2.604188226416707,0.024535014058649537
1774159267902807800,12.820807861328126,-2.275737777817249,2.3727082057505844,0.09269698839783667
1774159267922801000,12.84080078125,-2.3385563453018663,1.1993605917036532,-0.3493614269420504
1774159267942793700,12.860793701171875,-0.9309317733466624,-0.5867687918305396,-1.001224329973757
1774159267962787600,12.88078759765625,-1.3840145637869834,-2.1868664851874113,-1.4766839335255324
1774159267982780700,12.90078076171875,-1.845904930061102,-3.709543085211515,-1.6703743217624722
1774159268002773800,12.920773681640625,-2.384228547674417,-4.279892657160759,-2.1378198379456994
1774159268022766600,12.9407666015625,-1.9727765752613544,-3.5799931607127187,-2.8669074349552393
1774159268042759700,12.960759765625,-0.9168494719803333,-1.920163759970665,-2.5231863519877193
1774159268062752800,12.980752685546875,0.01078676695227623,-0.3300222279608249,-0.631643998606503
1774159268082745900,13.000745849609375,-0.9432494031280279,1.061613332223892,0.5867587088279426
1774159268102739700,13.02073974609375,-1.3881290133684874,0.8689391352921724,0.7834015171296894
1774159268122732500,13.040732666015625,-1.222509412100911,0.38119419679343697,-0.1361903854265809
1774159268142725600,13.0607255859375,-0.6933394072800875,-0.23868308391273022,-0.4991140353836119
1774159268162718700,13.08071875,0.288335259299539,-0.566696894660592,-0.6182778826855123
1774159268182711600,13.100711669921875,0.4444406343013048,-1.0178840806126594,-0.8936316780000925
1774159268202704600,13.12070458984375,0.36290980409476903,-1.394738786897063,-1.163616493627429
1774159268222697700,13.14069775390625,0.6836340058237313,-1.591426311123371,-1.2308597456865011
1774159268242691800,13.16069189453125,1.5538070668250321,-1.4870803859859705,-0.9345473334953188
1774159268262684700,13.1806845703125,1.0421523334939031,-1.3298048346936702,-0.5393110212154686
1774159268282677800,13.200677734375,-0.07810790655314923,-1.3315449563592672,-0.22232319300323725
1774159268302670600,13.220670654296875,0.14691723888516425,-1.4757242947131395,0.09009250498786568
1774159268322663700,13.24066357421875,0.6913507176809013,-1.6718021626085042,0.12086743634939193
1774159268342656500,13.260656494140624,0.3508756308972835,-1.7799650156855582,-0.23204379202872513
1774159268362649600,13.280649658203124,0.2703879896007478,-1.618569754114747,-0.5662563112862408
1774159268382643700,13.300643798828125,1.2195055541098117,-1.4552747964024544,-0.4226452743396163
1774159268402636800,13.32063671875,-0.8446363225542008,-1.3766191928386688,-0.15319909563362596
1774159268422629600,13.340629638671874,0.15604454819262026,-0.6031582010954618,-0.047485097013413906
1774159268442622700,13.360622802734374,0.6014911446660757,0.30284312913417816,0.22763123628348111
1774159268462615800,13.38061572265625,1.6793724517323076,1.2075199327617883,0.8603694598674774
1774159268482609000,13.40060888671875,1.0520660439386964,2.147421779027581,1.549780587787926
1774159268502601700,13.420601806640626,0.028755115971714255,2.4682033004343507,1.8817922360002994
1774159268522595600,13.440595703125,0.8240233042448759,3.0043852298438547,2.232950629361719
1774159268542588700,13.460588623046876,1.987706433367729,3.9869922453701494,2.232321683808416
1774159268562581800,13.480581787109376,2.616700794248283,4.557215560591221,1.959745390383154
1774159268582574600,13.50057470703125,2.6140339131265877,4.065622129970789,1.3239732059307396
1774159268602567700,13.520567626953126,0.6058277125656605,3.6788241218209263,0.25069705457240343
1774159268622560800,13.540560791015626,0.04859510408192873,3.6977918571412562,-0.8194628644615412
1774159268642553900,13.560553955078126,-0.7882990799129008,3.138502608388662,-0.676945760231465
1774159268662547700,13.580547607421876,-1.2689198656201361,2.7160142781764267,0.026399200495332478
1774159268682540500,13.60054052734375,-0.8798870841555296,1.795472965940833,0.3858135271571576
1774159268702533600,13.62053369140625,-0.07994272076487541,0.34230303286314007,0.24768647457957266
1774159268722527000,13.64052685546875,0.1736409951597452,-0.8662357215523719,0.21226430193409324
1774159268742519800,13.660519775390625,-0.5680997471958399,-2.69855168672204,0.20899989331066607
1774159268762513000,13.680512939453125,-1.297842593243718,-4.114627860680223,0.4065035562254488
1774159268782506000,13.700506103515625,-1.5710843648403883,-4.510849530735611,0.8084747297182678
1774159268802500000,13.7205,-2.7267332405894993,-4.078120961537957,1.5050705084457994
1774159268822493000,13.740492919921875,-2.7838188173800704,-3.0543472383648154,2.1676357150167225
1774159268842486000,13.760486083984375,-2.077277398699522,-1.8361141884088514,2.1410668570429086
1774159268862478800,13.780478759765625,-0.4538801513630897,-0.06974222926795483,1.5785513397201896
1774159268882472000,13.800471923828125,0.3799425892971456,1.3908669138997793,0.9352854385115206
1774159268902464800,13.82046484375,-0.6709604022115468,2.423952070775628,0.9477838316872715
1774159268922459000,13.840458984375,-1.0808834114916621,2.531676532435417,0.8412506256386637
1774159268942452000,13.860451904296875,0.4731663780480623,0.9277765241861343,0.04462649271190166
1774159268962445000,13.880445068359375,0.8894734623420983,-0.5965916821867228,-0.5167195424400269
1774159268982438000,13.90043798828125,-0.5020400058329105,-1.2938596610873936,-0.6515966533109545
1774159269002431000,13.920430908203125,-1.269641750153899,-1.6370067435592413,-0.4872818510316312
1774159269022424000,13.940424072265625,-0.11056465352177619,-2.411227029237151,-0.8956518587160855
1774159269042417200,13.960417236328125,0.6551642826646566,-2.9655168622672554,-1.557395446705818
1774159269062410800,13.98041064453125,0.45771746450364587,-3.2198850065678357,-1.6366855487808585
1774159269082403800,14.00040380859375,0.2889578847099095,-2.7540876959830523,-1.3951799547933041
1774159269102397000,14.02039697265625,0.1608102282244712,-1.673812917909026,-1.0633796843092889
1774159269122390000,14.04039013671875,0.7106172898173332,-0.13687281473278998,-0.4585824107699096
1774159269142382800,14.0603828125,2.4104952078312634,1.2557722147554158,0.45849180987700816
1774159269162376000,14.0803759765625,1.8873796807438135,1.632124816736579,0.6642170654311775
1774159269182370000,14.1003701171875,1.2570995178364217,1.205144435802102,0.006267462896928191
1774159269202363100,14.120363037109374,0.9949130279351025,1.2741595198392868,-0.664607087662071
1774159269222356000,14.14035595703125,1.0360456141166388,1.242433425232768,-0.2048846400115639
1774159269242348800,14.160348876953124,1.3883546388179062,1.1997779403328894,0.29823702357821164
1774159269262342000,14.180341796875,1.8760744428753853,1.4843226117104291,0.307109042950347
1774159269282335000,14.2003349609375,2.2652426872879263,2.1170307324171067,0.06881086670197546
1774159269302327800,14.220327880859376,0.5199216994822025,3.4413714564859865,-0.11837583872936665
1774159269322322000,14.240322021484374,-0.061924248993396755,5.598576962903142,-0.5376777939904481
1774159269342315000,14.26031494140625,-0.7051835743308067,6.735965374818444,-1.4380451369211076
1774159269362308000,14.28030810546875,-1.8282989846132696,4.460979292151332,-1.8991988594837486
1774159269382301000,14.300301025390626,-1.7362585604280232,0.7746037320375442,-2.133361981754005
1774159269402294000,14.3202939453125,-2.297803479152918,-2.8904151517927645,-1.5486697039365767
1774159269422287000,14.340287109375,-2.347238248929381,-5.569587015262246,-1.3287117787599563
1774159269442281000,14.360281005859376,-2.3829297400355336,-5.608763425874709,-1.6836381463527679
1774159269462273800,14.380273681640626,-3.7443677303552625,-2.2474808206260204,-1.9282845225840806
1774159269482267000,14.400266845703126,-2.216854211694002,0.5521113199472427,-2.064026579721272
1774159269502260000,14.420260009765625,0.4617384636480361,1.38306997641325,-1.6109462734989821
1774159269522253000,14.440253173828125,1.4818752185583113,1.1841121691673993,-0.6654046677805483
1774159269542246000,14.460245849609375,0.7649241226095705,0.5380401244968176,0.38699338459149
1774159269562240000,14.480239990234375,1.4526818572998046,0.33301088838279247,1.1574512489959596
1774159269582232800,14.50023291015625,2.112993439725041,-0.4059498678654432,1.5324366542771457
1774159269602226000,14.520225830078125,-1.4819237338751554,-0.9330331295400858,1.983691060246527
1774159269622218800,14.54021875,-2.556585348242521,-1.6809499301820992,2.6056197205245493
1774159269642211800,14.5602119140625,-0.9126708711214363,-2.038389741900563,2.157728507377952
1774159269662205000,14.580204833984375,-0.1384843415826559,-2.0360686054766175,1.4903735823124646
1774159269682198000,14.600197998046875,0.5335328762054443,-1.454137901327014,1.7408105246439576
1774159269702192000,14.620192138671875,-0.09513261804692447,-0.7143319264262914,1.950923055371642
1774159269722185200,14.640185302734375,-0.15063077951557932,-0.4761369182914495,1.4181591177120805
1774159269742178000,14.660177978515625,0.8850976584106683,-0.46495969071686266,0.4459118758976459
1774159269762171100,14.680171142578125,1.4645266088724136,-0.2706242825746536,-0.2720870486035943
1774159269782164200,14.700164306640625,1.5623369947612284,0.048583705905079835,-0.2554644151046872
1774159269802157000,14.720156982421875,1.9937661717981099,0.5857488011330366,0.27293811247497796
1774159269822151200,14.740151123046875,1.3955927733778952,0.6390677188664674,0.7629699928671121
1774159269842144000,14.76014404296875,-0.3621352760583162,0.21165829886496065,0.5684516293734312
1774159269862137000,14.78013720703125,-1.2095528998941183,-0.8070984729290008,-0.44871495061963795
1774159269882130200,14.800130126953125,-0.5545564480770379,-1.052501220485568,-1.2592401831269264
1774159269902123000,14.820123046875,1.8206512463390827,0.371138082203269,-1.31107120039016
1774159269922116000,14.8401162109375,2.359247251152992,3.328319077801704,-0.35564795986562964
1774159269942110000,14.86010986328125,0.021797990310192108,3.232677852645516,0.8306038516789674
1774159269962103000,14.88010302734375,-1.6023972024708986,2.2646716094017028,1.1990393969252704
1774159269982096000,14.900095947265624,-1.8966671490490437,1.371803316989541,0.9895146029576659
1774159270002089000,14.9200888671875,-0.9934743734341114,0.02790390596985817,0.40697979543507096
1774159270022082000,14.94008203125,-1.213691899394989,-1.7539403475910424,0.12412380779683589
1774159270042075100,14.9600751953125,-1.4973118571430444,-2.696629194226861,0.1748500786885619
1774159270062069200,14.9800693359375,-1.4725205302357673,-2.733481545805931,0.6095458563059568
1774159270082062000,15.00006201171875,-1.1272938650108872,-1.9469518136531114,1.0769318973869084
1774159270102055200,15.02005517578125,-0.9112842390686273,-0.552890487626195,0.932341494014114
1774159270122048300,15.04004833984375,-0.786998445643112,0.6411404334872961,0.5858551841169596
1774159270142041000,15.060041015625,-0.7673164976388216,0.8389385493040085,0.32854660245031114
1774159270162034000,15.080033935546876,-0.6547516102105378,0.03866846109032631,0.05536679017394781
1774159270182028000,15.100028076171874,0.1965413937538862,-0.754445325627923,-0.3478887240409851
1774159270202021000,15.120021240234376,0.5296783927343786,-1.0473609349876642,-0.4197323095023632
1774159270222014200,15.14001416015625,0.48526364307701586,-0.9166454738408326,-0.14776391884237527
1774159270242007000,15.160007080078126,0.13328567696101962,-0.7993295924931764,-0.5699966668583453
1774159270262000000,15.180000244140626,-0.09519465043246746,-0.3822352302789688,-1.04505616517663
1774159270281993200,15.1999931640625,0.36256139251589775,0.7338549575418234,-1.1835332002356649
1774159270301987000,15.219987060546876,1.4567507141739129,0.6328454833507537,-1.4847189175516367
1774159270321980000,15.23997998046875,2.7323352983802556,-0.07346855631470679,-2.4624483901694414
1774159270341973000,15.259972900390625,1.7986210547082124,-0.23109540526270866,-2.5482418827891347
1774159270361966000,15.279966064453125,0.46637671790793533,-0.645450697901845,-1.1607006061807275
1774159270381959000,15.299958984375,0.45658992177844043,-0.8859627508074045,0.27616036245711145
1774159270401952000,15.319951904296875,0.6870213101744651,-1.5978297484248876,1.0486755977828055
1774159270421946000,15.339946044921875,1.1701432650476693,-1.3455635448396206,0.9658126787222922
1774159270441939200,15.359939208984375,0.9636357730746269,-0.8182523196280002,0.6449706592999398
1774159270461932300,15.379932373046875,0.7386427763402461,0.04577098657190799,0.7070151736721396
1774159270481925000,15.399925048828125,0.7095493683248758,1.0402508107215165,0.7163784836925565
1774159270501918000,15.41991796875,1.741418281278759,2.172058792155981,0.5596200881421566
1774159270521912000,15.439912109375,1.4721248089164494,3.698329032757878,0.11404314328730106
1774159270541905200,15.4599052734375,0.28273484547659755,5.474471859806775,-0.9496034483298659
1774159270561898000,15.47989794921875,0.5815772145368159,5.172162399157881,-1.891382778905332
1774159270581891000,15.49989111328125,-1.299272479916364,3.8734839396119116,-2.201185371788591
1774159270601884200,15.51988427734375,-2.2301099991083144,1.5481179152727127,-2.1478259759142992
1774159270621877200,15.539877197265625,-2.016819715127349,-1.2980226259857415,-1.5123320238813758
1774159270641870800,15.559870849609375,-2.2043011657215654,-3.9287966615110634,-1.0427564368668942
1774159270661864000,15.579864013671875,-2.6271196046710013,-4.4416450616061685,-1.2464528900071978
1774159270681857000,15.59985693359375,-2.964361847013235,-2.4802315918803215,-1.651018902298808
1774159270701850000,15.61985009765625,-2.600338565251231,0.26812019079923627,-2.1073377520509062
1774159270721843200,15.63984326171875,-1.4737271295465528,1.9321166480928658,-2.055429577898234
1774159270741836300,15.659836181640625,0.23824542314782737,2.087397226175666,-1.4882592205069958
1774159270761830400,15.679830322265625,1.7920453295797107,0.9773211840778588,0.009328823228925465
1774159270781823500,15.699823486328125,2.623295077946782,0.2795920174062252,1.2036015902742743
1774159270801816300,15.71981640625,0.01109656355381012,-0.4742600185036659,0.26132439317926764
1774159270821809400,15.739809326171875,0.40359307560622687,-1.198176934877038,-0.42048005912974473
1774159270841802200,15.75980224609375,0.7434715847361832,-1.7904577681273222,-0.011888444583863018
1774159270861795300,15.77979541015625,0.422289592769742,-1.4929063156604765,1.056426138844341
1774159270881789200,15.7997890625,1.0577877095211297,-1.4837936194002628,1.9005546580068766
1774159270901782300,15.8197822265625,0.6481306577008217,-1.7990706981718538,2.1691377901427447
1774159270921775400,15.839775390625,-0.3725245681256056,-2.324246664920449,2.1509667581580576
1774159270941768400,15.8597685546875,-0.050186464926600456,-2.236266768172383,1.497894625467062
1774159270961761300,15.87976123046875,0.9304091377120465,-1.6298445968449116,0.9475582062378525
1774159270981755100,15.899755126953124,1.8967583344638346,-1.2085527829408644,1.0533075684323907
1774159271001748200,15.919748291015624,1.498660933664441,-1.192544481948018,1.2298001536309717
1774159271021741300,15.9397412109375,-0.6239162538986652,-1.1535709004312753,0.5144717635132372
1774159271041734100,15.959734130859376,-0.6511847845744341,-0.6384849505424499,-1.0391792359672487
1774159271061727200,15.979727294921876,0.2881745523124933,0.8238315810650586,-2.083981718643755
1774159271081720300,15.99972021484375,1.444135562750697,2.827212553426623,-2.2370194862358272
1774159271101714400,16.01971435546875,-0.33839550403058527,3.387488475129008,-0.6912040026865899
1774159271121707500,16.03970751953125,-1.7821183943271637,1.9163287118524313,0.914423706138134
1774159271141700400,16.059700439453124,-1.5425672954082488,-0.14103402606546878,1.5631483111441133
1774159271161693400,16.079693359375,-1.0577408747047186,-0.7130757888853549,1.7236974772796034
1774159271181686500,16.0996865234375,-1.2433259901583193,0.5026929167836904,1.4808685257337986
1774159271201680400,16.119680419921874,-1.911114776596427,2.9098481665372846,0.4582224914163351
1774159271221673200,16.139673095703124,-2.49940683247149,4.107373359507322,-0.4051173625640571
1774159271241666300,16.159666259765626,-2.2180746933996676,2.123286870202422,-0.4492199775323272
1774159271261659400,16.179659423828124,-1.2322796954870223,0.3424018170624971,-0.5342116522498429
1774159271281652200,16.19965234375,-0.46255620977170764,-0.8702940570324659,-0.7377664318971335
1774159271301645300,16.219645263671875,-0.09905943610183894,-1.6708751108914612,-0.46259413062930105
1774159271321639400,16.239639404296874,0.10208799014277756,-1.939097008499503,0.46271629570424555
1774159271341632300,16.25963232421875,-0.15831022810228168,-1.8362988973259924,1.210109072472155
1774159271361625300,16.279625244140625,-0.6467471674531697,-1.9399124165356159,1.3178195056065916
1774159271381618200,16.2996181640625,-0.5747287368815391,-2.0745418362557886,0.9939121072642505
1774159271401611300,16.319611328125,-0.4089377976350486,-1.9995973621696232,0.5008436356551945
1774159271421605400,16.33960546875,-0.15302373906672,-1.6070137563556433,0.1575136708971113
1774159271441598500,16.359598388671873,0.07975918089151382,-1.2408598923057317,-0.07282872404120862
1774159271461591300,16.37959130859375,0.292797024481371,-0.8637690391778945,0.08831146678999066
1774159271481584400,16.39958447265625,0.338096667214483,-0.4953466456741094,0.6197073309667408
1774159271501577500,16.419577392578127,0.3860949744470417,-0.2857832732617855,0.944666941775754
1774159271521570600,16.439570556640625,0.4460271728403866,0.1037976436048746,0.724430199657753
1774159271541564200,16.459564208984375,0.4986866037517786,0.5362327828139066,0.35008038886636494
1774159271561557200,16.47955712890625,0.7273007135927677,0.507268554136157,0.3734570266701281
1774159271581550300,16.49955029296875,0.8165368940122425,0.0648942047148943,0.6451029804427176
1774159271601543400,16.51954345703125,0.47040626568496224,-0.29215047020614143,0.615548530786857
1774159271621536300,16.539536376953127,0.30145664321184157,-0.20050445216596124,0.6090270200636237
1774159271641530400,16.5595302734375,0.6730809014968574,0.23221067302823065,0.36695648566968736
1774159271661523500,16.5795234375,1.6970049929261206,1.2711597535014152,0.25446502880379557
1774159271681516300,16.599516357421876,2.127078225309402,2.723171164193749,-0.32314116321019826
1774159271701509000,16.619509033203126,1.3731034398026765,3.8507892927229403,-1.3664382828250528
1774159271721501700,16.639501708984376,0.28341932060942054,4.70755634418428,-1.8792266232959924
1774159271741494500,16.65949462890625,-0.6800385386150329,3.8714638319611545,-1.0250320526711643
1774159271761488600,16.679488525390624,-2.071129981985688,2.824825366029143,-0.24175182383358476
1774159271781481500,16.6994814453125,-2.257992862290144,1.9257237321853637,-0.3882666193976998
1774159271801474600,16.719474609375,-1.98990540471673,-0.1926993313729763,-0.9678738490357994
1774159271821467600,16.739467529296874,-1.9310610015600917,-2.734641821756959,-1.6146666091963648
1774159271841460500,16.75946044921875,-1.6618611988306045,-3.718696698004007,-2.352920970740914
1774159271861454600,16.77945458984375,-1.7557739927589893,-2.8743758711397644,-2.6568752759873866
1774159271881447700,16.79944775390625,-1.7997627720892428,-0.8004337543427944,-2.477078388546407
1774159271901440500,16.8194404296875,-0.848943225967884,0.7379699916452169,-1.2850348418578506
1774159271921433600,16.83943359375,0.9783704739350825,0.9776233818948268,0.5451103551439941
1774159271941426400,16.859426513671874,1.7267144870132207,0.6007639994353056,1.9574976114563643
1774159271961420500,16.879420654296876,0.61670851447694,-0.27322248237431046,1.6930786132626234
1774159271981413600,16.89941357421875,0.28427871391773224,-0.7250748542368411,0.4755861525408923
1774159272001406700,16.91940673828125,0.04917115040421485,-1.057519925430417,0.28387817029282447
1774159272021399600,16.939399658203126,0.01708265222609043,-1.2075643564254044,0.5322630024001002
1774159272041392600,16.959392578125,0.75530866445899,-1.1976648937016725,0.7068056225746869
1774159272061385700,16.9793857421875,0.8908147939484566,-1.0536521440863609,0.789948454555124
1774159272081379600,16.999379638671876,0.42069209444522854,-1.0736164892286062,0.7408896784842014
1774159272101372400,17.019372314453125,1.1974994740068912,-1.3084522500634193,0.6126169343143701
1774159272121365500,17.039365478515624,1.0186907208204268,-1.21275724889338,0.37548473310545083
1774159272141358600,17.059358642578125,1.1382248627394438,-1.0704349365830421,0.17255056957453488
1774159272161351700,17.0793515625,2.0145868415087462,-1.096739006140828,0.348067880000174
1774159272181345500,17.099345458984374,1.7881529983162878,-0.9431932890266179,0.7485001534879208
1774159272201338600,17.119338623046875,0.14197572736237196,-1.1168120723545552,0.8001166512176394
1774159272221331700,17.139331787109374,1.024281672695279,-1.1944716506183146,0.6037748716890812
1774159272241324500,17.159324462890623,1.4661831439077853,-0.9535247134268283,0.48693289146348834
1774159272261317400,17.1793173828125,0.6628700347363948,-0.6446931575328111,-0.2672765795819461
1774159272281311500,17.1993115234375,-0.014603073837421834,0.10386544814407825,-1.162572683662921
1774159272301304600,17.2193046875,1.3174164777636528,1.9760744477629661,-1.0786658815726637
1774159272321297700,17.239297607421875,1.4364064298033714,4.418512607821822,0.1029132619857788
1774159272341290500,17.25929052734375,-1.2079460492193699,4.8729731163561345,0.9463732342369854
1774159272361283600,17.27928369140625,-2.020605078884959,4.071591267508268,1.2094462246492503
1774159272381276700,17.299276611328125,-1.592148195657134,0.8139443933010101,1.1783802013866602
1774159272401270500,17.3192705078125,-0.5652753374248742,-0.9574369184345006,0.47859015666246413
1774159272421263400,17.339263427734377,-0.9168494719803333,-1.901381318089366,-0.08119578956589102
1774159272441256400,17.35925634765625,-2.179466438063979,-1.424159527170658,0.6196918411366641
1774159272461249500,17.37924951171875,-2.2788310676574706,-0.1355389357805252,1.3813973670259116
1774159272481242600,17.39924267578125,-2.097024301698804,0.9985685547679662,1.5227322757340966
1774159272501236700,17.41923681640625,-1.417462659880519,1.5803993056744337,0.35459494368135924
1774159272521229600,17.4392294921875,-0.659322571387887,0.27082886523604394,-1.1587471340253948
1774159272541222700,17.45922265625,-0.8430401394039392,-0.6949731459617614,-1.7681616190366445
1774159272561215700,17.4792158203125,-0.9290086963295936,-1.3627835597097873,-1.5754807001031934
1774159272581208600,17.49920849609375,0.054773865782096975,-1.5698890175759792,-1.167304096098989
1774159272601202400,17.519202392578126,0.2867160971324891,-1.6757026771783827,-0.5751691010601818
1774159272621195500,17.539195556640625,0.1013491544742137,-1.6535598189532756,0.016943828277289866
1774159272641188600,17.559188720703126,0.33317031672820446,-1.3848235420823096,0.43173385907188055
1774159272661181700,17.579181640625,0.7424755594361573,-1.137627481368184,0.6260320039436221
1774159272681174500,17.599174560546874,0.8703659532248973,-0.8778793975949287,0.8077101750865578
1774159272701168600,17.619168701171876,0.9171266814865171,-0.7386965523540974,0.9740949155077337
1774159272721162000,17.639161865234374,0.9383582700856029,-0.7225859600305556,0.7323805741403251
1774159272741155000,17.659155029296876,0.8406810090571641,-0.6942196972459554,0.43265155843868847
1774159272761148000,17.67914794921875,0.9174423233069479,-0.39014030431509017,0.30259689928814765
1774159272781141000,17.69914111328125,0.954783335185796,-0.03107785983085632,0.43654447422400117
1774159272801135000,17.719135009765626,0.9038111267089843,0.01861409957706928,0.7111202709034085
1774159272821128200,17.739128173828124,0.9340973977707326,0.25979952169954773,0.9640987874764948
1774159272841121000,17.75912109375,1.018390276569128,0.4708125083982944,0.7396122789595275
1774159272861114000,17.779114013671876,0.7805268384762107,0.532692333728075,0.2716375512704253
1774159272881107200,17.799107177734374,0.27736674257218835,0.7045867774814367,-0.14968714198991656
1774159272901100000,17.81910009765625,0.31207901338264343,1.9971727653712033,-0.2579823162097484
1774159272921094100,17.83909423828125,0.6236268424980342,3.888080620241165,-0.7309889005862176
1774159272941087000,17.8590869140625,0.016611965974420308,4.494658858913183,-1.7774834280028937
1774159272961080000,17.879080078125,-1.2249848623037338,4.68112777146399,-3.1076787233188745
1774159272981073200,17.8990732421875,-2.279551783147454,4.115778199759125,-3.358004898752272
1774159273001066000,17.91906591796875,-2.2742175825126467,1.1173077469170092,-2.4712100810348985
1774159273021060000,17.93906005859375,-2.535561264914274,-2.0437416243225335,-1.471482127098739
1774159273041053200,17.95905322265625,-1.6797808864027262,-4.147061226773261,-1.8213640707835554
1774159273061046000,17.9790458984375,-1.5007299950234592,-2.708917597913742,-2.477867200836539
1774159273081039000,17.9990390625,-1.2550848170131443,-0.8978174392521381,-2.241571596582234
1774159273101032000,18.019031982421875,-0.6784798379309475,0.5644505770385265,-1.2033916738506405
1774159273121026000,18.039026123046874,-0.47362113607823847,1.5759095930397509,0.35818770747631784
1774159273141019100,18.05901904296875,0.13832893182523548,1.0435030905157328,1.4251668045170605
1774159273161012200,18.07901220703125,0.2358119123905897,-0.10607961706221103,1.3158154723078013
1774159273181005000,18.099005126953124,0.050343116793036456,-1.2661036391556262,0.15617949968390166
1774159273200998100,18.118998046875,-0.06549056317284703,-1.931545570206642,-0.3932306715458631
1774159273220992000,18.138991943359375,0.18190715759322046,-1.7367466362059116,0.24636881610974667
1774159273240985000,18.158985107421874,0.0755552994608879,-1.3820745356351136,1.2494723839588462
1774159273260978000,18.17897802734375,0.06429046666808426,-0.7183902619063853,2.0777920702233907
1774159273280971000,18.198970947265625,0.5788509313780814,-0.3219265997886658,2.2778373804450034
1774159273300964000,18.218964111328123,0.8099843305636197,-0.6231529413759708,1.2867257175542413
1774159273320958200,18.238958251953125,0.6571487344801425,-1.1508324153780936,-0.03312573227137327
1774159273340951000,18.258950927734375,1.1354852086424827,-1.313227209380269,-0.46844709444120525
1774159273360944000,18.278944091796873,1.4641981075704096,-1.2221464240074158,-0.025536300055682658
1774159273380937200,18.298937255859375,1.8945887353397906,-1.3671446775287388,0.2777342607103288
1774159273400930000,18.318929931640625,2.4890976199030876,-1.2981816159397364,0.7820657384812831
1774159273420924200,18.338924072265623,1.4367460370212792,-1.0871148532271384,1.1636477655485271
1774159273440917000,18.3589169921875,0.11816051547825336,-1.0521534299612045,0.7938339176863431
1774159273460910000,18.37891015625,-0.4577466905981302,-0.6444681166052818,0.049383770241588354
1774159273480903200,18.398903076171877,0.12283727511763572,0.5697755714535713,-0.5953896129205822
1774159273500896000,18.41889599609375,2.3941193887002763,2.6767525273680683,0.2053580296769738
1774159273520890000,18.43889013671875,-0.529504935863614,4.624364266234636,1.9127081832677124
1774159273540883000,18.458883056640627,-2.4396727869987487,3.8348470427036285,2.120289734213054
1774159273560876000,18.4788759765625,-2.1880565717548133,2.4564579175829886,1.873197133873403
1774159273580868900,18.498868896484375,-1.8849884016931056,1.3316729666531084,1.3643322504565119
1774159273600862000,18.518862060546876,-0.8404827830713242,-0.7653957587093114,0.8158949428468942
1774159273620856000,18.53885595703125,-1.7140619261890648,-2.489755207028985,0.7826610740259289
1774159273640849200,18.55884912109375,-3.1766356474280357,-3.0838486426591873,1.10558004585281
1774159273660842200,18.57884228515625,-3.287047156214714,-2.5155899055093527,1.1244243009239434
1774159273680835000,18.5988349609375,-2.3060960912019013,0.057146951588988304,-0.0042830841466784475
1774159273700828200,18.618828125,-1.8469833729475735,2.939791469380259,-1.592975148000568
1774159273720821500,18.638821533203124,-1.6482551366738973,3.574927694016695,-2.96953720382452
1774159273740814300,18.658814453125,-0.8772960447490215,1.5185428612202405,-3.2202079549118876
1774159273760807400,18.678807373046876,0.146012252869457,0.01786474251449108,-2.840094246831536
1774159273780800300,18.69880029296875,0.3959603887706995,-0.1574503233373165,-1.770361759429425
1774159273800793300,18.71879345703125,0.38453298582732676,-0.7118120525598526,-0.3032762598544359
1774159273820787500,18.738787353515626,0.43724049366414547,-1.2825240280807018,0.4708515982996672
1774159273840780500,18.758780517578124,0.2411417291112244,-1.9387673381537198,0.9391806193191558
1774159273860773600,18.778773681640626,-0.10359773711860179,-2.323843929338455,1.1507877725187687
1774159273880766500,18.798766357421876,-0.07537585124075412,-2.287175702154636,1.0742556639149785
1774159273900759600,18.818759521484374,0.3062771952360868,-2.0025071121364832,0.8652948605056852
1774159273920753400,18.83875341796875,0.8414601767361164,-1.6081436371684072,0.494181328221783
1774159273940746500,18.85874658203125,1.3126573005378246,-1.2299182270526885,0.5424220659080893
1774159273960739300,18.8787392578125,1.2222118904590606,-1.0450327843010425,0.9155416773173958
1774159273980732400,18.898732421875,0.8107856370091437,-0.6784031194329261,1.0675139345698057
1774159274000725500,18.9187255859375,0.8623642869465052,-0.2969248450011015,0.7176083908136933
1774159274020719600,18.9387197265625,0.9260141906887293,0.022525135540962218,0.2667336318116635
1774159274040712400,18.95871240234375,0.6487908021099865,0.40861937933564185,-0.15907280997261405
1774159274060705500,18.97870556640625,0.39932781937718387,0.9323433937102555,-0.3466683154005557
1774159274080698400,18.998698486328124,0.4434077841222286,1.618202089846134,0.7659438210461288
1774159274100691500,19.01869140625,1.0876954295940697,2.974316839316487,1.5813818869709968
1774159274120685300,19.038685302734375,2.286115817838162,4.399606831821799,0.6119443688150495
1774159274140678400,19.058678466796874,2.816666609492898,5.223457117587327,-1.8771344733223319
1774159274160671500,19.07867138671875,2.058196266132593,5.541723441302776,-2.618997965274751
1774159274180664600,19.09866455078125,-0.6524602844029664,3.039538376289606,-1.2469380431756376
1774159274200657400,19.118657470703123,-2.5554455305576322,0.3313186975121498,-0.1702135049290955
1774159274220651300,19.1386513671875,-3.2607793270140886,-1.279332538563013,0.0028638649985194206
1774159274240644400,19.158644287109375,-3.6094887197881933,-4.386312465962767,-1.1481995826564728
1774159274260637400,19.178637451171873,-2.8410435103803873,-3.75531991700232,-2.0694914209984243
1774159274280630300,19.19863037109375,-2.467472063550353,-3.0146091022163626,-2.414602643150091
1774159274300624400,19.218624267578125,-2.2542688733309504,-0.0927139395326376,-2.0306145778544247
1774159274320617500,19.238617431640623,-0.9421252944689243,1.0860510233879088,-1.1608285434093326
1774159274340610600,19.258610595703125,-0.1401262635707855,1.7601006237864494,-0.29614034355990587
1774159274360603400,19.278603271484375,0.25167883215136827,1.1569500214755535,0.7841182140316814
1774159274380596500,19.298596435546877,0.5409451252233237,1.1258844366043805,1.7437611911430955
1774159274400590300,19.31859033203125,1.2551321632862091,0.7842939359247684,1.7353261018835007
1774159274420583400,19.33858349609375,1.9678911413073539,0.10587912605404853,1.9540464480891822
1774159274440576500,19.358576416015627,1.473472131872177,-0.7491004574686289,1.504934607106447
1774159274460569300,19.3785693359375,0.7524001566011458,-1.1547808607429266,0.782708931755647
1774159274480562400,19.3985625,-0.058445174705982206,-1.180447801440954,0.6616008915834128
1774159274500556500,19.418556640625,-0.6002818419415503,-1.6699240937769413,0.07072590654306113
1774159274520549600,19.438549560546875,-0.285299289137125,-2.0843121196419,0.14160298505984245
1774159274540542500,19.45854248046875,0.5146621715188026,-1.9847154348582028,0.32939576662555337
1774159274560535600,19.47853564453125,0.8707616745442152,-1.546882235997915,0.18252923501431942
1774159274580528400,19.4985283203125,1.2808143015533684,-1.1575550016313791,-0.25984248405843974
1774159274600522500,19.5185224609375,1.8999445632845162,-0.5671627586066722,0.04370616299659014
1774159274620515300,19.538515380859376,2.0084429319262505,0.39990123535096644,1.2302408831357956
1774159274640508400,19.55850830078125,2.5504583897948265,0.8053297096908092,1.987438868472725
1774159274660501500,19.57850146484375,0.6247399183064699,0.34040625933110713,0.7455592777304351
1774159274680495600,19.59849560546875,-0.5095499430716037,0.5202957934916019,-0.7380231831371784
1774159274700488400,19.618488525390624,0.20119831618163733,0.9956488679289818,-0.8632366858668625
1774159274720482300,19.638482421875,0.8962982668608427,2.10963886860013,-0.011576163764297962
1774159274740475400,19.658475341796876,1.2689356477111577,2.7909149131208655,0.6011715573228895
1774159274760468500,19.678468505859374,-1.7616197961777447,2.9568863965660332,1.5384645362645386
1774159274780462300,19.69846240234375,-1.646934263333678,1.5397586677283048,0.9567503974750637
1774159274800455400,19.718455322265626,-1.569501479563117,0.12851648979783056,0.8598962893977761
1774159274820448500,19.738448486328124,-2.2257664169460534,-0.6621744536876678,1.3308644267491996
1774159274840441300,19.75844140625,-2.344112810385227,-1.87711021566391,1.65095445876047
1774159274860434200,19.77843408203125,-2.183946213826537,-2.1766525496870277,1.5716374686785042
1774159274880428300,19.79842822265625,-1.3540671692907809,-1.7741648049741983,0.5268925614081322
1774159274900421400,19.81842138671875,-0.927388986173272,-0.4608493327885866,-0.4821355741843581
1774159274920414500,19.83841455078125,-0.03491816864609718,0.30024726742208,-1.4372222762309015
1774159274940407300,19.8584072265625,0.03715630296170711,0.41542438317537306,-2.054275147166103
1774159274960401400,19.8784013671875,-0.6585971066575497,0.3772936822235584,-1.612247273094952
1774159274980394200,19.898394287109376,-0.23340364567246286,-0.07038754143416881,-0.7762218347586691
1774159275000387300,19.91838720703125,-0.3679973730247468,-0.6683493429303169,-0.30781200358793137
1774159275020380200,19.938380126953124,-0.48602403299026187,-1.320174252039194,-0.1784746989265084
1774159275040373200,19.958373291015626,-0.06943469768874347,-1.4775053329110144,-0.0928746830523014
1774159275060367400,19.978367431640624,0.606244476673007,-1.2229033798545599,0.15856281462386249
1774159275080360400,19.9983603515625,1.0682529163688421,-1.4007079244345426,0.2660935072772205
1774159275100353500,20.018353515625,1.0289379740685225,-1.5294494551599025,0.37740810238346456
1774159275120346400,20.038346435546874,1.1377538111615926,-1.9941665692925452,0.40839872232228513
1774159275140340200,20.05834033203125,1.1925976734399795,-2.006180247691274,0.4501283245489001
1774159275160333300,20.078333251953126,1.7013086814694105,-1.6195248628824948,0.6465177426114678
1774159275180326400,20.098326416015624,1.1778227866996078,-0.5629682295262813,0.6557479277715087
1774159275200319200,20.1183193359375,0.8267015835434198,0.25301088447272774,0.7954356537945568
1774159275220312300,20.138312255859375,0.5922701657257974,0.855858704444766,0.8173289211727678
1774159275240306400,20.158306396484374,0.8134943845111876,1.648046023967862,0.3884495747491717
1774159275260299500,20.178299560546876,1.8725212804384528,2.912818706780672,-0.4427823457002639
1774159275280292400,20.198292236328125,2.093369140192121,3.63892465763092,-0.9016368514098226
1774159275300285400,20.218285400390624,1.0959458099365234,4.591014369818568,-2.856440985998511
1774159275320279300,20.238279296875,-3.308097543027997,5.159193027469516,-4.056515278929472
1774159275340272400,20.2582724609375,-6.217093476650119,3.7397628669083116,-3.364756418839097
1774159275360265200,20.27826513671875,-4.738486904498934,-0.6254495278805494,-2.2255637339808048
1774159275380258300,20.29825830078125,-2.5652152294218538,-3.0209324600189924,-1.785800151579827
1774159275400252400,20.31825244140625,0.23785364735126494,-2.884595651859045,-1.5068242202453315
1774159275420245500,20.33824560546875,0.9723439801871776,-1.829287557259202,-0.9440861462131142
1774159275440238600,20.358238525390625,0.23220307424366474,-1.1154062972098588,0.10787556056827306
1774159275460231400,20.3782314453125,-0.47803018469214437,-1.1247148083031178,0.844685933849588
1774159275480224300,20.398224365234373,-0.004731704697012901,-0.9352712638556957,1.118554897433892
1774159275500218400,20.41821826171875,0.3878128112155944,-0.3720014210343361,0.48633843270167704
1774159275520211500,20.43821142578125,0.43141164138019084,-0.17221359270513056,-0.8167452030006795
1774159275540204300,20.458204345703123,0.4033364704966545,-0.18794775293171403,-1.6267793640553951
1774159275560197400,20.478197265625,0.4226500966452062,-0.22527882793843745,-1.0873582335289567
1774159275580191500,20.49819140625,0.6336825186967849,-0.4120347407370806,-0.32197233862653374
1774159275600184300,20.518184326171873,0.8600744224436581,-0.6195499484479426,0.07410320095643401
1774159275620177200,20.53817724609375,1.0661873621411622,-0.8308890983611344,0.31561938940323886
1774159275640170200,20.558170166015625,1.243346594554931,-1.1801374203175305,0.028141514118015763
1774159275660164400,20.578164306640623,1.3480192674286662,-1.5477093344718218,-0.35461364838182924
1774159275680157400,20.598157470703125,1.0798406244404612,-1.9566794269412755,-0.6069006755594164
1774159275700150300,20.618150390625,0.9926375572837889,-2.118383316069841,-0.7534657400060445
1774159275720142000,20.63814208984375,0.7972003253795206,-1.594457057121396,-0.41705607603043315
1774159275740136200,20.65813623046875,0.7038860818661749,-0.4621119000703096,-0.09713036773540079
1774159275760129300,20.67812939453125,0.6405665791220962,0.9034691814035176,0.3940264250334352
1774159275780122400,20.698122314453126,0.8813426897913217,2.1454630461752413,0.7028435870759189
1774159275800115200,20.718115234375,0.8896838171571493,2.8246605308562516,0.7230432022787631
1774159275820108300,20.7381083984375,0.4201799071393907,3.530671203660965,0.9030535132747143
1774159275840102100,20.75810205078125,0.27094913061484693,4.102227813312411,1.5790695183753967
1774159275860095200,20.77809521484375,-0.840138572743535,4.288547088259458,1.6854440267309545
1774159275880088000,20.798088134765624,-2.4894927567005154,4.006166901439428,0.7114665270578115
1774159275900081200,20.8180810546875,-3.5715602634102104,1.7136282109469174,0.44737917197123167
1774159275920075300,20.8380751953125,-2.1089140614569186,-1.8226152398884294,0.2245716295171529
1774159275940068400,20.858068359375,-1.339890321508795,-4.030214716503024,0.4236652650371194
1774159275960061200,20.878061279296876,-1.1008002642303705,-4.692533547097444,0.7049431166384369
1774159275980054000,20.898053955078126,-1.084129699936509,-2.878821160110831,0.25947796159498393
1774159276000048000,20.918048095703124,-1.2036048051446675,-1.1092173794418572,0.013874869160726666
1774159276020041200,20.938041259765626,-1.2656646632164716,-0.19885259330570695,0.14536073015816509
1774159276040034300,20.958034423828124,-1.2317080330789087,0.3614689211040735,0.3732356390044093
1774159276060027100,20.978027099609374,-1.2439093430042265,1.1733972984075545,0.684731810997799
1774159276080021200,20.998021240234376,-0.34192075554728507,1.4080799145072698,0.9368423125647007
1774159276100014300,21.018014404296874,0.4952491766490042,0.9320417804151773,1.2313608270764351
1774159276120007200,21.038007080078124,1.0226327364444732,0.2508960842758417,1.6057301462858915
1774159276140000000,21.058,1.02700262209177,-0.12652210111021994,1.824768618530035
1774159276159994000,21.077994140625,0.7435455998204648,-0.3969260189324617,1.842032764802873
1774159276179987200,21.0979873046875,0.9276531900674104,-0.9436801957607269,1.4815959632255136
1774159276199980300,21.117980224609376,0.8345937980979681,-1.7146277433782815,1.0376116943895817
1774159276219973000,21.13797314453125,0.7815969519257545,-2.507744452705979,0.6242657249234617
1774159276239967200,21.15796728515625,0.09169979405403136,-3.243318489125371,0.3820820855438709
1774159276259960000,21.1779599609375,-0.04134557134509086,-3.2362282386034726,0.17399083151072262
1774159276279953200,21.197953125,0.6534143702574073,-2.265994966959953,0.647149610774219
1774159276299946200,21.2179462890625,0.41099852955713867,-0.7908446727424859,0.9285087839834392
1774159276319940000,21.237940185546876,-0.34262218181490894,1.1140016911089419,0.7296399701952934
1774159276339933200,21.25793310546875,0.07283624976053833,2.629704944989085,-0.043538989736139774
1774159276359926300,21.27792626953125,1.302430505555868,3.0446289774268864,-0.2576547647558153
1774159276379919400,21.29791943359375,0.9697269295565784,4.117252948486804,0.4327192168474197
1774159276399913200,21.317913330078124,0.41190512300804255,5.826179265353083,0.7033608889482915
1774159276419906000,21.337906005859374,0.20051336612477896,6.568326250422,0.13944924109205603
1774159276439899100,21.357899169921875,-1.1840841121166943,4.0950288417190315,0.2618089618258178
1774159276459892200,21.377892333984374,-2.4355114295355973,0.8003799783289433,-0.0856282190553844
1774159276479886300,21.39788623046875,-3.045193041050434,-1.4428911156475543,-1.3605802044466138
1774159276499879200,21.417879150390625,-2.9446178666234015,-2.6952280952572822,-2.7188252439439293
1774159276519872300,21.437872314453124,-2.8380156869918105,-3.1267303375303745,-3.0838609176188707
1774159276539865300,21.457865234375,-0.8443426003046334,-1.868569766333699,-2.3689576210454106
1774159276559859200,21.477859130859375,2.3351474136412143,0.3538450020968914,0.03637961950078607
1774159276579852000,21.49785205078125,0.04467325446307659,-0.00920037454366684,1.2763769036278128
1774159276599845000,21.51784521484375,-0.7060054121077061,-0.2418716508209705,0.04459843566119671
1774159276619838200,21.537838134765625,-1.621699284312129,-0.44262510931193827,-0.9940792805247008
1774159276639832300,21.557832275390624,-1.0865263127494602,-1.07745095282495,-0.8573644328325987
1774159276659825200,21.5778251953125,0.23931670564115046,-2.0624854877591132,-0.04641995199993253
1774159276679818200,21.597818359375,0.7921534172534942,-2.0848551404774187,0.7286788700781762
1774159276699811300,21.617811279296873,0.8959593902952968,-1.8921645769327877,1.1094451968483625
1774159276719806200,21.63780615234375,0.86481482190378,-1.7180945427060126,1.1172490024670958
1774159276739799300,21.65779931640625,0.7800854513842612,-1.5193658680409192,0.646922962411493
1774159276759792400,21.67779248046875,0.8585743931442499,-1.512600027167797,0.565715044016391
1774159276779785200,21.69778515625,1.0848463237732648,-1.521194252511859,0.5677756298080087
1774159276799779000,21.717779052734375,1.0559691888570786,-1.5422715273320673,0.7964002610430121
1774159276819772200,21.737772216796873,0.9669910017866641,-1.2685066086441277,1.2638752955816686
1774159276839765200,21.75776513671875,0.21390739296600222,-0.7251578563451766,1.4398628538675606
1774159276859759400,21.77775927734375,-0.3621965777914971,0.03673077102601528,0.9006355654127896
1774159276879752200,21.797752197265623,-0.0151003923676908,1.2254407893776893,0.5309824610702694
1774159276899745300,21.817745361328125,0.42808045113086696,2.300218139079213,0.18859861805588005
1774159276919738400,21.83773828125,-0.21094123663678763,3.4942741946339604,-0.19060747366026043
1774159276939732200,21.857732177734373,-1.6696614973179995,4.931742700710893,0.7243900868430734
1774159276959725000,21.87772509765625,-1.9519195190630851,4.252863195937872,1.1120329483192413
1774159276979718100,21.89771826171875,-1.2200713712990283,0.09920622416138648,1.5157061764895916
1774159276999711200,21.917711181640627,-2.142476139318943,-1.5227859056174755,2.1655264677777883
1774159277019705300,21.937705322265625,-2.9577526580065485,-1.2104980717897413,2.595760005289316
1774159277039698200,21.9576982421875,-2.8320944802492853,1.7021464474678039,1.5893196942329406
1774159277059691300,21.977691162109377,-2.729966231161356,3.269319776344299,0.7644266214162111
1774159277079684400,21.997684326171875,-2.6546470785439014,3.9129438433408734,-1.2286069983236492
1774159277099678200,22.01767822265625,-2.2188993076555428,0.6279641410499811,-1.6431692117117345
1774159277119671300,22.03767138671875,-1.1146790058486162,-1.033220765954256,-1.7594463976614176
1774159277139664100,22.0576640625,0.30636326608434317,-1.8362918830633161,-0.9970888376042246
1774159277159657200,22.0776572265625,0.6725012019127607,-2.3833967730253933,0.3142239529894665
1774159277179651300,22.0976513671875,0.15744184776991604,-2.879011714246869,1.2698217828959226
1774159277199644400,22.11764453125,-0.03767448161691427,-2.8698762216329574,1.6061907495349645
1774159277219637200,22.13763720703125,-0.21608473700508474,-2.6730337991058826,1.0589029042214155
1774159277239631000,22.157631103515627,-0.3361462637990713,-2.699901932287216,0.7300396370373666
1774159277259624200,22.177624267578125,-0.15855959975346923,-2.379162496456504,0.3082570439416915
1774159277279617300,22.1976171875,-0.39375834868177767,-2.0378928982943294,0.8055265474371611
1774159277299610000,22.217610107421876,0.6338133054696024,-1.5062047731727362,1.3664853368371723
1774159277319604200,22.237604248046875,1.1923114038445055,-1.105655887567997,1.6050339807152747
1774159277339597300,22.257597412109376,2.1437223399877547,-0.8923650190651417,1.585673154424131
1774159277359590400,22.27759033203125,0.8855196832150221,-0.8578209444284438,1.1613044172927736
1774159277379583200,22.297583251953125,-0.3712035486549139,-0.32942893824279307,1.2732687084794043
1774159277399577000,22.3175771484375,-0.8742816653639077,1.1963403670996426,2.0419785601727662
1774159277419570200,22.337570068359376,-0.7441156547933816,2.9696576153337952,3.1330747381210324
1774159277439563300,22.357563232421874,0.20492562960907815,4.863557637757062,3.4633763675451275
1774159277459557400,22.377557373046876,1.001951767465472,5.656654473340511,1.2576200345791875
1774159277479550200,22.39755029296875,0.7780056494355201,6.469526268973946,-1.9956641143739222
1774159277499543300,22.417543212890624,-1.2500672811120748,5.288339631864428,-3.6383193852141495
1774159277519536400,22.437536376953126,-2.8008599685519933,2.839998969763517,-3.447274835310876
1774159277539530200,22.4575302734375,-2.4471499910116195,0.399702497908473,-3.2028219358250496
1774159277559523300,22.4775234375,-2.128622970533371,-1.113908167606592,-3.4483015480101105
1774159277579516200,22.49751611328125,-2.374052021574974,-2.1333763025403023,-3.780396782852709
1774159277599509200,22.51750927734375,-2.5966023013323545,-2.4354841031372545,-4.088081506799162
1774159277619503400,22.53750341796875,-2.3515492439962924,-2.5545973892956972,-4.037729329916835
1774159277639496400,22.557496337890626,0.21158114197552202,-2.0061305633306503,-1.9711998274639249
1774159277659489300,22.5774892578125,0.4724737196087837,-1.4724989029258488,-0.4945686470389366
1774159277679483100,22.597483154296874,0.4571323580920696,-1.6029361316531896,0.03850815596207976
1774159277699476200,22.617476318359376,-0.16859247959852217,-1.8794412889599799,-0.26135274249091744
1774159277719468300,22.63746826171875,-0.8185719800364225,-1.715186546304822,-0.4263571344695985
1774159277739461400,22.65746142578125,-0.3966320774871856,-1.8139707456618546,-0.43847938780933615
1774159277759455500,22.67745556640625,0.07175356909036636,-1.5440391215264797,-0.13714169480204583
1774159277779448600,22.697448486328124,0.7205402064818889,-1.4883166497826574,0.12259060688018798
1774159277799441400,22.71744140625,1.1362735825411974,-1.2095371178030967,0.31300533444732426
1774159277819435300,22.737435302734376,1.2830857536166906,-1.1555734724253415,0.3697315764062106
1774159277839428400,22.757428466796874,1.173547520533204,-1.033571479088068,0.2624212485052645
1774159277859421400,22.77742138671875,1.1664474792696535,-1.099685580986738,-0.022017916671186685
1774159277879414500,22.79741455078125,1.2884807445280253,-1.3198977731853723,-0.4358069537296891
1774159277899408400,22.817408447265624,1.4281431899793444,-1.5566022505015134,-0.6144822897948324
1774159277919401500,22.8374013671875,1.7943449848242103,-1.621374874663353,-0.2319185582138598
1774159277939394600,22.85739453125,2.4010247841745613,-1.4350374795377254,0.2506957393981516
1774159277959387600,22.8773876953125,2.354842294192314,-1.0450327843010425,0.5637304460704327
1774159277979381500,22.897381591796876,2.090807911401987,-0.713340577301383,0.6301879545792937
1774159277999374300,22.917374267578126,1.7181391125001013,-0.36828912251293655,0.1355341134749353
1774159278019367400,22.937367431640624,0.9840081144958734,0.3626882337659597,-0.6213654734373092
1774159278039361500,22.957361572265626,0.6191039582461119,1.704386335349083,-1.1593437847442924
1774159278059354600,22.977354736328124,1.1052648424237965,2.609196994489431,-1.2190047649808227
1774159278079347500,22.997347412109374,2.245909041264653,3.355957026311755,-0.990668741428852
1774159278099340500,23.017340576171875,2.4709230807870624,4.077060054308176,-0.04287731095701456
1774159278119334400,23.03733447265625,0.8280430612802505,4.385538558980822,1.0642328670725225
1774159278139327500,23.057327392578124,0.8698194252580403,3.649951078557968,1.197248787181452
1774159278159320300,23.0773203125,-0.7984709298372268,2.202379696139693,0.3198812846314162
1774159278179314400,23.097314453125,-1.472746740207076,0.5217442387342452,-1.1086119608946143
1774159278199307500,23.1173076171875,-1.7829525070637464,-0.9391261857181787,-1.7979298575736582
1774159278219300600,23.137300537109375,-2.8102514817535877,-1.5906687707543372,-1.0021187215302139
1774159278239293400,23.15729345703125,-2.909731846681237,-1.5918389835774898,-0.4375776166640222
1774159278259287300,23.177287353515624,-2.294037843009084,-0.7055722813874483,1.0612554586969316
1774159278279280400,23.1972802734375,-2.1622323946684596,0.12857961816191674,1.5834040404483676
1774159278299273500,23.2172734375,-1.3285598030686379,0.6601508389055728,1.296154786287248
1774159278319267600,23.237267578125,-0.20266382215693593,0.4368821817457676,0.15526413840465247
1774159278339260400,23.257260498046875,0.30318741252720355,-0.02956336361467838,-0.8679035086341201
1774159278359253500,23.27725341796875,0.8269897528350353,-0.8564537477284669,-1.3887562053561209
1774159278379246600,23.29724658203125,0.9061012834727764,-1.3216636138141153,-0.9492955514244734
1774159278399240400,23.317240478515625,0.4738565522693097,-1.9429232887893915,0.1995933652030304
1774159278419233500,23.337233642578123,0.31642917141616345,-2.548219086435437,0.4664170864509418
1774159278439226400,23.357226318359373,0.37604455894529815,-2.618290401527285,0.06243687469065189
1774159278459220500,23.377220458984375,0.6288607976287603,-2.400223404663801,-0.3262853429874405
1774159278479213600,23.397213623046873,0.9100708446908742,-2.1457962236523627,-0.4338190313154831
1774159278499206700,23.41720654296875,0.8860580278754234,-1.6709487606495619,-0.3407874772010371
1774159278519200500,23.437200439453125,0.7527065191365778,-1.133134846124053,0.06961564374621958
1774159278539193300,23.457193359375,0.8113982159495353,-0.8256009288251399,0.9335488239772617
1774159278559186400,23.4771865234375,0.5655670138478279,-0.9608394203543662,1.483817292536795
1774159278579179500,23.497179443359375,0.7285492523491383,-0.6201005680680275,1.3369038530439137
1774159278599173600,23.517173583984373,0.43260801155790685,0.32939386692941186,1.1599236304588616
1774159278619166500,23.53716650390625,-0.08674407134279608,0.9099433458536863,0.9603346857026219
1774159278639159600,23.55715966796875,0.4951869250677526,2.9305203676879406,-0.04665043628755956
1774159278659153400,23.5771533203125,0.9026232320986688,3.8402071084320544,-0.15341693963538855
1774159278679146500,23.597146484375,2.4673925685733553,3.4036703791230916,0.39427513909749684
1774159278699139300,23.617139404296875,1.9916094321556388,3.6196067936986682,0.07400909293219447
1774159278719133000,23.6371328125,0.8255692185126244,4.7698155242204665,-1.6264330348357556
1774159278739127000,23.657126953125,-0.23061156726852058,4.666641565471887,-2.8285435097694394
1774159278759120000,23.677119873046873,-2.3951684593617917,3.2543039935201405,-2.5088725799530742
1774159278779113000,23.697113037109375,-3.4049124881386756,0.5462070643395185,-1.52827924233675
1774159278799106800,23.71710693359375,-3.6135844646692274,-1.9407903684139252,-1.6889657711163162
1774159278819100000,23.737099853515623,-3.64106926844418,-4.086419418805837,-2.3428040658742186
1774159278839093000,23.757093017578125,-2.8953263047099114,-4.12733419751823,-3.0005998660862443
1774159278859087000,23.777087158203123,-0.41138533691763873,-2.093230170112848,-4.082336241145431
1774159278879080000,23.797079833984377,0.8155997592926025,-1.0861883860319852,-2.8460242214024065
1774159278899072800,23.81707275390625,0.3587036941744387,-0.48663259334266185,-0.729372259169817
1774159278919065900,23.83706591796875,-0.21795754513964055,-0.43066286883950233,0.602866816933453
1774159278939060000,23.85706005859375,-0.11576587542667985,-0.878610049957037,0.8876976117759943
1774159278959053000,23.877052978515625,-0.011276157904416322,-0.9889157602816819,0.3998180871121585
1774159278979046000,23.8970458984375,0.12910510334074496,-1.0650105734467505,0.09500482694879174
1774159278999040000,23.9170400390625,0.2138363735564053,-1.1659165872633457,0.02539630706310272
1774159279019032800,23.93703271484375,0.5070097570694982,-1.481376036864519,-0.05540332279205322
1774159279039026000,23.95702587890625,0.9150883075267076,-1.6239304043650626,-0.03285772898495197
1774159279059018800,23.977018798828126,1.2360850791193545,-1.8487492135763168,-0.049666824966669076
1774159279079012900,23.997012939453125,1.5196920312553643,-2.2023247510820627,0.12616115884333848
1774159279099006000,24.017005859375,2.221709396640211,-2.625720843788981,0.4546149684436619
1774159279118999000,24.0369990234375,1.4589502700448036,-2.2644553363025186,0.42494361440986395
1774159279138993200,24.0569931640625,0.9983939288534224,-1.339797820919752,-0.26037337606474753
1774159279158985700,24.07698583984375,1.1334114711083472,-0.469438881957531,-0.6535159309357405
1774159279178978800,24.096978759765626,1.2492759846039116,0.10146890839636326,-0.8397400749452412
1774159279198973000,24.116972900390625,1.2999718603573738,0.9674503629267215,-0.8734303092315793
1774159279218966000,24.136966064453127,1.69846103695333,1.9402111072212456,-0.4792324000887572
1774159279238958800,24.156958740234376,2.2506696797952053,2.6097259867995977,0.03998217403739691
1774159279258952000,24.176951904296875,2.2948516436100004,2.518569213581085,-0.21524653261527418
1774159279278946000,24.196946044921877,1.6841127781271934,2.8321751442700625,-0.6171054779052734
1774159279298939000,24.21693896484375,1.1391782179415226,4.025199518689513,-0.2310525159690529
1774159279318932000,24.236931884765625,0.42839214742854237,4.180073269537091,0.5838143259391189
1774159279338925800,24.25692578125,-0.9536721590735018,3.257481454512477,-0.09526618129871785
1774159279358919000,24.2769189453125,-2.0114766005337237,1.6494553062438964,-1.262828855268657
1774159279378912000,24.296912109375,-2.3819513965226706,-0.8311445344269275,-2.3950509704619645
1774159279398906000,24.316906005859376,-3.5560792011618614,-2.726362653711438,-1.9024344804041087
1774159279418899000,24.33689892578125,-4.318618401396274,-3.1007033313482997,0.04769041032716632
1774159279438891800,24.356891845703124,-4.023569871661067,-2.8270331052064894,0.9442412637095898
1774159279458884900,24.376884765625,-2.1656267132818696,0.18082710727155207,2.1798940158262847
1774159279478879000,24.39687890625,-0.587777092090249,1.4154980818092822,1.9628782815814017
1774159279498872000,24.4168720703125,-0.004622252973169088,1.20339496178627,1.1597195592541247
1774159279518865000,24.436864990234376,0.542805293072015,0.40782910574078557,-0.07102459722869098
1774159279538859000,24.45685888671875,0.8518547295004129,-0.16366028389334678,-1.0465960880950094
1774159279558851800,24.476851806640624,0.7236264089941978,-1.0766448971390723,-0.5234921053148806
1774159279578845000,24.496844970703126,0.7348901458084582,-1.8601000441521405,0.519806840930879
1774159279598839000,24.516839111328125,0.5916705923974513,-2.227184467050433,1.3905520027317106
1774159279618832000,24.536831787109374,0.31953079069331286,-2.4628619394063946,1.5119512078702448
1774159279638825000,24.556824951171876,-0.20144173301607368,-3.2614094416111707,1.246167058803141
1774159279658818000,24.576818115234374,-0.3424199372410774,-3.835793383643031,-0.031261180508509276
1774159279678812000,24.59681201171875,0.2110401669666171,-3.307095672509074,-0.4561460139358416
1774159279698804700,24.6168046875,0.9199193809449672,-2.4856039325684307,-0.18106248693000523
1774159279718797800,24.6367978515625,1.201365794046223,-1.5885890418708324,0.3575373172761872
1774159279738792000,24.6567919921875,1.4816887560755014,-0.39646424663960933,0.3302088000414893
1774159279758784800,24.67678466796875,1.1000336637720465,1.207100830566883,0.08596483973176218
1774159279778777900,24.69677783203125,0.9650912325799464,2.4702982268869875,0.1992874410590157
1774159279798772000,24.71677197265625,0.9624892333880066,2.560350838255882,0.7237951896898448
1774159279818764800,24.736764892578126,0.5898483454063534,2.6920623247027398,1.263036068278551
1774159279838757600,24.756757568359376,0.7282283498317003,3.21771350774765,1.1731209656842052
1774159279858751700,24.776751708984374,1.2778341166988014,3.7604140252709386,0.40812998838350173
1774159279878744800,24.796744873046876,1.0425710703626274,4.358410313558578,-0.9665185619693248
1774159279898738000,24.816738037109374,0.46985476928204295,4.688191133978963,-1.562058470080793
1774159279918730800,24.836730712890624,-1.5523948619395493,5.639417507335543,-2.2395170021399853
1774159279938724900,24.856724853515626,-2.504189975094795,4.913693249279261,-0.8419192456152289
1774159279958717700,24.8767177734375,-1.8234698108911513,1.57516549667418,0.42126382991857825
1774159279978710800,24.896710693359374,-1.6220780544966458,-1.7236217816948889,0.8061253170479089
1774159279998705000,24.916704833984376,-1.4714666372686624,-3.5314807664781807,0.44028037281669674
1774159280018697700,24.93669775390625,-1.6156056436121462,-3.7932945506095885,-0.1770548952564597
1774159280038690800,24.95669091796875,-2.3504116182684895,-2.8452777869492767,-0.7663449491929263
