time,seconds_elapsed,z,y,x
1774159255136019500,0.05401953125,-0.7990264892578125,-0.5363616943359375,0.1313018798828125
1774159255156012500,0.074012451171875,-0.819366455078125,-0.533447265625,0.093597412109375
1774159255176005600,0.094005615234375,-0.8316802978515625,-0.534698486328125,0.062255859375
1774159255195998700,0.113998779296875,-0.8675537109375,-0.536041259765625,0.041046142578125
1774159255215991600,0.133991455078125,-0.86712646484375,-0.4775390625,0.01678466796875
1774159255235984600,0.153984619140625,-0.94580078125,-0.4016265869140625,-0.01544189453125
1774159255255977700,0.173977783203125,-0.9480438232421875,-0.4058380126953125,-0.001556396484375
1774159255275969500,0.193969482421875,-0.9065704345703125,-0.4674224853515625,-0.052734375
1774159255295962600,0.213962646484375,-0.898284912109375,-0.5572509765625,-0.0936737060546875
1774159255315955700,0.233955810546875,-0.8597259521484375,-0.52880859375,-0.16168212890625
1774159255335948500,0.253948486328125,-0.782562255859375,-0.6331329345703125,-0.209564208984375
1774159255355941600,0.273941650390625,-0.7842864990234375,-0.7524566650390625,-0.2711029052734375
1774159255375934700,0.293934814453125,-0.8162078857421875,-0.6778106689453125,-0.3218536376953125
1774159255395927600,0.313927490234375,-0.8399505615234375,-0.6237945556640625,-0.269287109375
1774159255415920400,0.33392041015625,-0.8225250244140625,-0.5757598876953125,-0.138519287109375
1774159255435913500,0.35391357421875,-0.707672119140625,-0.4576263427734375,-0.2112579345703125
1774159255455906600,0.373906494140625,-0.6998748779296875,-0.4471282958984375,-0.2882232666015625
1774159255475899400,0.3938994140625,-0.7320404052734375,-0.5038604736328125,-0.4167938232421875
1774159255495892500,0.413892578125,-0.780181884765625,-0.448089599609375,-0.4701080322265625
1774159255515885600,0.433885498046875,-0.7153472900390625,-0.3022003173828125,-0.468109130859375
1774159255535878700,0.453878662109375,-0.741912841796875,-0.571136474609375,-0.378509521484375
1774159255555871500,0.47387158203125,-0.7113189697265625,-0.8126678466796875,-0.38690185546875
1774159255575864600,0.493864501953125,-0.7822113037109375,-0.67730712890625,-0.410614013671875
1774159255595857700,0.513857666015625,-0.82330322265625,-0.478363037109375,-0.4268798828125
1774159255615850800,0.533850830078125,-0.78936767578125,-0.4585418701171875,-0.3801422119140625
1774159255635843600,0.553843505859375,-0.7335357666015625,-0.46282958984375,-0.369171142578125
1774159255655836700,0.573836669921875,-0.7227325439453125,-0.465728759765625,-0.3452606201171875
1774159255675828500,0.593828369140625,-0.7755126953125,-0.441131591796875,-0.35955810546875
1774159255695821600,0.613821533203125,-0.861236572265625,-0.408447265625,-0.4047088623046875
1774159255715815400,0.6338154296875,-0.8502655029296875,-0.48199462890625,-0.4402008056640625
1774159255735808500,0.65380859375,-0.757843017578125,-0.5112152099609375,-0.4192352294921875
1774159255755801600,0.673801513671875,-0.7159423828125,-0.516998291015625,-0.4044036865234375
1774159255775794400,0.69379443359375,-0.769805908203125,-0.4832000732421875,-0.4336090087890625
1774159255795787500,0.71378759765625,-0.8143157958984375,-0.4572906494140625,-0.472900390625
1774159255815780600,0.733780517578125,-0.8020477294921875,-0.4624176025390625,-0.48480224609375
1774159255835773400,0.7537734375,-0.750885009765625,-0.4874420166015625,-0.468780517578125
1774159255855766500,0.7737666015625,-0.73291015625,-0.4628753662109375,-0.4281158447265625
1774159255875759600,0.793759521484375,-0.7174530029296875,-0.387451171875,-0.3923187255859375
1774159255895752700,0.813752685546875,-0.73089599609375,-0.358489990234375,-0.44049072265625
1774159255915745500,0.83374560546875,-0.71392822265625,-0.36700439453125,-0.5096893310546875
1774159255935738600,0.853738525390625,-0.7194976806640625,-0.3683929443359375,-0.5303497314453125
1774159255955731700,0.873731689453125,-0.727508544921875,-0.403350830078125,-0.572784423828125
1774159255975724500,0.893724609375,-0.6620330810546875,-0.4091796875,-0.5612640380859375
1774159255995717600,0.913717529296875,-0.6189727783203125,-0.362274169921875,-0.572052001953125
1774159256015710700,0.933710693359375,-0.6598358154296875,-0.360809326171875,-0.6167144775390625
1774159256035703600,0.95370361328125,-0.6883697509765625,-0.396881103515625,-0.6358795166015625
1774159256055696400,0.9736962890625,-0.6781768798828125,-0.336395263671875,-0.7035369873046875
1774159256075688700,0.993688720703125,-0.5953521728515625,-0.2509765625,-0.7681732177734375
1774159256095681800,1.013681884765625,-0.5242767333984375,-0.1916351318359375,-0.8465728759765625
1774159256115674400,1.03367431640625,-0.46356201171875,-0.212493896484375,-0.9429931640625
1774159256135667500,1.05366748046875,-0.3543853759765625,-0.1841583251953125,-0.9413299560546875
1774159256155660500,1.07366064453125,-0.329986572265625,-0.048187255859375,-0.8916473388671875
1774159256175653400,1.0936533203125,-0.4187774658203125,-0.0933990478515625,-0.8524017333984375
1774159256195646500,1.113646484375,-0.583404541015625,-0.147613525390625,-1.023956298828125
1774159256215639600,1.1336396484375,-0.62640380859375,-0.1766357421875,-1.01336669921875
1774159256235632600,1.153632568359375,-0.6106719970703125,-0.197509765625,-1.0129547119140625
1774159256255625500,1.17362548828125,-0.55877685546875,-0.1739349365234375,-0.9348602294921875
1774159256275618600,1.19361865234375,-0.59429931640625,-0.0987091064453125,-0.8928070068359375
1774159256295611600,1.213611572265625,-0.535064697265625,-0.1082305908203125,-0.8548126220703125
1774159256315604700,1.233604736328125,-0.5469818115234375,-0.070770263671875,-0.831085205078125
1774159256335597600,1.25359765625,-0.5155792236328125,-0.1543426513671875,-0.8126220703125
1774159256355590700,1.273590576171875,-0.469635009765625,-0.2178497314453125,-0.820892333984375
1774159256375583700,1.293583740234375,-0.4316558837890625,-0.2147064208984375,-0.832305908203125
1774159256395576600,1.31357666015625,-0.448516845703125,-0.198394775390625,-0.8549957275390625
1774159256415569700,1.333569580078125,-0.4642181396484375,-0.296600341796875,-0.8682403564453125
1774159256435561700,1.353561767578125,-0.4228973388671875,-0.293243408203125,-0.919647216796875
1774159256455554600,1.373554443359375,-0.345001220703125,-0.24169921875,-0.89044189453125
1774159256475547600,1.393547607421875,-0.28375244140625,-0.19219970703125,-0.8428497314453125
1774159256495540700,1.413540771484375,-0.37469482421875,-0.157623291015625,-0.8544158935546875
1774159256515533600,1.433533447265625,-0.329315185546875,-0.1817169189453125,-0.8860931396484375
1774159256535526400,1.4535263671875,-0.29632568359375,-0.1932525634765625,-0.9241485595703125
1774159256555519500,1.47351953125,-0.2728424072265625,-0.224853515625,-0.91400146484375
1774159256575512600,1.4935126953125,-0.2844390869140625,-0.2130584716796875,-0.955322265625
1774159256595505400,1.51350537109375,-0.42138671875,-0.1484375,-0.9569244384765625
1774159256615498500,1.53349853515625,-0.4539794921875,-0.0674591064453125,-0.94366455078125
1774159256635491600,1.55349169921875,-0.339752197265625,0.2930755615234375,-0.8803253173828125
1774159256655484700,1.573484619140625,-0.2136077880859375,0.0190582275390625,-0.98614501953125
1774159256675477500,1.5934775390625,-0.298797607421875,0.0819854736328125,-0.982391357421875
1774159256695470600,1.613470703125,-0.2829437255859375,0.0782623291015625,-0.87200927734375
1774159256715463700,1.633463623046875,-0.3099212646484375,0.1198883056640625,-0.9550323486328125
1774159256735456500,1.65345654296875,-0.2176971435546875,0.005523681640625,-1.0288543701171875
1774159256755449600,1.67344970703125,-0.2484130859375,-0.0244140625,-1.0472259521484375
1774159256775442700,1.693442626953125,-0.3422698974609375,0.2418365478515625,-1.031951904296875
1774159256795434500,1.7134345703125,-0.2374420166015625,0.0424652099609375,-1.0984344482421875
1774159256815427600,1.733427490234375,-0.2203216552734375,0.0662078857421875,-1.0824432373046875
1774159256835420700,1.753420654296875,-0.106964111328125,0.1022491455078125,-1.0411529541015625
1774159256855413800,1.773413818359375,-0.0283203125,0.1512908935546875,-0.95648193359375
1774159256875406600,1.793406494140625,0.0118255615234375,0.1815185546875,-0.7325897216796875
1774159256895399700,1.813399658203125,-0.1215362548828125,0.259246826171875,-0.694091796875
1774159256915392500,1.833392578125,-0.17340087890625,0.1647491455078125,-0.71649169921875
1774159256935385300,1.85338525390625,-0.1875762939453125,0.2500762939453125,-0.761322021484375
1774159256955378400,1.87337841796875,-0.2082977294921875,0.350006103515625,-0.8675689697265625
1774159256975371500,1.89337158203125,-0.1235504150390625,0.2505340576171875,-0.8977813720703125
1774159256995364600,1.913364501953125,-0.0972747802734375,0.27569580078125,-1.045501708984375
1774159257015357400,1.933357421875,-0.1494598388671875,0.301910400390625,-1.1274566650390625
1774159257035350500,1.9533505859375,-0.1621246337890625,0.3308868408203125,-1.2977447509765625
1774159257055343600,1.973343505859375,-0.1446990966796875,0.4892578125,-1.22607421875
1774159257075336400,1.99333642578125,-0.1405792236328125,0.458831787109375,-1.03826904296875
1774159257095329500,2.01332958984375,-0.1703643798828125,0.3180999755859375,-1.0384979248046875
1774159257115321600,2.033321533203125,-0.1499481201171875,0.391265869140625,-0.9761810302734375
1774159257135314400,2.053314453125,-0.016510009765625,0.267425537109375,-0.892547607421875
1774159257155307500,2.0733076171875,0.090728759765625,0.1684417724609375,-0.79248046875
1774159257175300600,2.093300537109375,-0.112762451171875,0.071807861328125,-0.867340087890625
1774159257195293700,2.113293701171875,-0.249053955078125,0.104400634765625,-0.792816162109375
1774159257215286500,2.13328662109375,-0.1939544677734375,0.1882476806640625,-0.5767669677734375
1774159257235279600,2.153279541015625,-0.1949005126953125,0.1564788818359375,-0.585540771484375
1774159257255272700,2.173272705078125,-0.2382049560546875,0.18353271484375,-0.76904296875
1774159257275265800,2.193265869140625,-0.2364501953125,0.20123291015625,-0.8735809326171875
1774159257295258600,2.213258544921875,-0.141998291015625,0.4094390869140625,-0.878692626953125
1774159257315251700,2.233251708984375,-0.005462646484375,0.3967437744140625,-0.9434051513671875
1774159257335244500,2.25324462890625,-0.06646728515625,0.6671600341796875,-1.07171630859375
1774159257355237400,2.2732373046875,0.01318359375,0.6411285400390625,-0.9326934814453125
1774159257375230500,2.29323046875,0.152069091796875,0.429290771484375,-0.995452880859375
1774159257395223600,2.3132236328125,0.0120697021484375,0.55401611328125,-0.891937255859375
1774159257415216600,2.333216552734375,-0.0758209228515625,0.6125030517578125,-0.69366455078125
1774159257435208400,2.35320849609375,-0.149627685546875,0.3799285888671875,-0.821502685546875
1774159257455201500,2.373201416015625,-0.26605224609375,0.07476806640625,-1.3678741455078125
1774159257475194600,2.393194580078125,-0.7192840576171875,0.1627655029296875,-1.58209228515625
1774159257495187500,2.4131875,-0.5000762939453125,0.5201873779296875,-1.2643585205078125
1774159257515180500,2.4331806640625,-0.001983642578125,0.6196746826171875,-0.9257354736328125
1774159257535173600,2.453173583984375,0.161651611328125,0.677001953125,-0.7333526611328125
1774159257555166500,2.47316650390625,0.04718017578125,0.6632843017578125,-0.8364715576171875
1774159257575159600,2.49315966796875,-0.007080078125,0.6041412353515625,-0.9172515869140625
1774159257595152600,2.513152587890625,-0.1032867431640625,0.51458740234375,-0.8332672119140625
1774159257615145700,2.533145751953125,-0.130126953125,0.5428314208984375,-0.7457427978515625
1774159257635138600,2.553138671875,-0.11993408203125,0.580596923828125,-0.65069580078125
1774159257655131600,2.573131591796875,-0.0370635986328125,0.6050567626953125,-0.6281585693359375
1774159257675124700,2.593124755859375,0.0250091552734375,0.6961212158203125,-0.635711669921875
1774159257695117600,2.61311767578125,-0.0587921142578125,0.7856903076171875,-0.6912689208984375
1774159257716358100,2.634358154296875,-0.0572052001953125,0.6770172119140625,-0.6467437744140625
1774159257736351000,2.65435107421875,-0.1353302001953125,0.6484527587890625,-0.4999847412109375
1774159257756344000,2.674343994140625,-0.154754638671875,0.349029541015625,-0.6657562255859375
1774159257776337200,2.694337158203125,-0.4510040283203125,0.9765625,-0.6881103515625
1774159257796330000,2.714330078125,-0.08447265625,0.8369903564453125,-0.5818939208984375
1774159257816323000,2.734322998046875,0.1963653564453125,0.881134033203125,-0.4762420654296875
1774159257836315100,2.754315185546875,-0.238677978515625,0.70733642578125,-0.713531494140625
1774159257856308000,2.774307861328125,-0.45135498046875,0.509552001953125,-0.8079071044921875
1774159257876301000,2.794301025390625,-0.202606201171875,0.64971923828125,-0.768035888671875
1774159257896294100,2.814294189453125,0.3853302001953125,1.1377716064453125,-0.5289459228515625
1774159257916287200,2.834287353515625,0.2140350341796875,0.69598388671875,-0.5207977294921875
1774159257936280000,2.854280029296875,-0.19964599609375,0.5709991455078125,-0.62750244140625
1774159257956273200,2.874273193359375,-0.4180450439453125,0.57708740234375,-0.7259979248046875
1774159257976266200,2.894266357421875,-0.1754608154296875,0.9399566650390625,-0.8682708740234375
1774159257996259000,2.914259033203125,-0.0683441162109375,0.7734222412109375,-0.5268096923828125
1774159258016252200,2.934252197265625,0.1426849365234375,0.7988433837890625,-0.3690643310546875
1774159258036245000,2.954244873046875,0.126251220703125,0.7304229736328125,-0.2867584228515625
1774159258056238000,2.974238037109375,-0.2941131591796875,0.4285736083984375,0.0487518310546875
1774159258076231000,2.99423095703125,-0.438934326171875,0.3149566650390625,0.0839691162109375
1774159258096224000,3.01422412109375,-0.314788818359375,0.4174652099609375,-0.0645904541015625
1774159258116216000,3.034216064453125,0.0789337158203125,0.345947265625,0.0347900390625
1774159258136209000,3.054208984375,-0.00677490234375,0.519317626953125,0.01043701171875
1774159258156202000,3.074201904296875,0.134246826171875,1.3892974853515625,-0.0991363525390625
1774159258176195000,3.094195068359375,-0.061248779296875,3.1805267333984375,-0.3007659912109375
1774159258199938000,3.11793798828125,-0.11053466796875,1.7743072509765625,-0.285858154296875
1774159258219931100,3.13793115234375,-0.0878448486328125,0.4984130859375,0.0524444580078125
1774159258239924200,3.15792431640625,0.010223388671875,0.7108001708984375,0.1342620849609375
1774159258259917000,3.1779169921875,-0.130401611328125,0.9345245361328125,0.01385498046875
1774159258279910100,3.19791015625,-0.052459716796875,1.0823822021484375,-0.1762847900390625
1774159258299903200,3.2179033203125,0.095855712890625,1.1444244384765625,-0.2069854736328125
1774159258319896000,3.23789599609375,0.0824127197265625,1.0093994140625,-0.1521759033203125
1774159258339889200,3.25788916015625,0.0701446533203125,0.975341796875,-0.0738983154296875
1774159258359882200,3.27788232421875,-0.1626434326171875,0.9571990966796875,-0.073760986328125
1774159258379875000,3.297875,-0.0526580810546875,1.0230865478515625,-0.1500396728515625
1774159258399868000,3.317867919921875,0.0288238525390625,1.0115203857421875,-0.08502197265625
1774159258419860200,3.337860107421875,-0.0181732177734375,1.004241943359375,-0.0646820068359375
1774159258439853300,3.357853271484375,-0.086669921875,0.965667724609375,-0.0803070068359375
1774159258459846100,3.37784619140625,-0.0219879150390625,0.9994049072265625,-0.141357421875
1774159258479839000,3.3978388671875,-0.00030517578125,0.9741363525390625,-0.164794921875
1774159258499832000,3.41783203125,-0.1670989990234375,0.896636962890625,-0.1181640625
1774159258519825000,3.437824951171875,0.00640869140625,0.889556884765625,-0.0499114990234375
1774159258539818000,3.45781787109375,0.0962677001953125,1.11871337890625,-0.0935516357421875
1774159258559811000,3.47781103515625,0.2038116455078125,1.1192474365234375,-0.1470947265625
1774159258579804200,3.49780419921875,-0.039306640625,0.8228912353515625,-0.18927001953125
1774159258599797000,3.517796875,0.5495452880859375,1.0415496826171875,-0.2947845458984375
1774159258619790000,3.5377900390625,-0.3186187744140625,1.0475311279296875,-0.177276611328125
1774159258639783200,3.557783203125,-0.3139495849609375,0.9991302490234375,-0.059326171875
1774159258659776000,3.57777587890625,0.0963134765625,0.877410888671875,-0.1163482666015625
1774159258679769000,3.59776904296875,0.1218719482421875,1.051971435546875,-0.2277984619140625
1774159258699762200,3.61776220703125,0.076171875,1.011749267578125,-0.1993255615234375
1774159258719754500,3.63775439453125,0.0023345947265625,1.01019287109375,-0.1573944091796875
1774159258739747600,3.65774755859375,-0.0561065673828125,1.03839111328125,-0.1436920166015625
1774159258759740400,3.677740478515625,-0.0893096923828125,1.08062744140625,-0.21002197265625
1774159258779733500,3.6977333984375,0.009490966796875,1.08551025390625,-0.1259918212890625
1774159258799726600,3.7177265625,0.17218017578125,0.9381103515625,0.02386474609375
1774159258819719700,3.7377197265625,0.076934814453125,0.9359130859375,0.01141357421875
1774159258839712300,3.757712158203125,-0.03619384765625,1.112152099609375,-0.10015869140625
1774159258859705300,3.777705322265625,-0.001068115234375,1.110595703125,-0.10638427734375
1774159258879698400,3.797698486328125,0.0908966064453125,0.9883575439453125,-0.142730712890625
1774159258899691300,3.817691162109375,0.10601806640625,0.83837890625,-0.1284027099609375
1774159258919684400,3.837684326171875,-0.006805419921875,0.957916259765625,0.0265960693359375
1774159258939677400,3.857677490234375,-0.0203399658203125,1.0919036865234375,-0.00408935546875
1774159258959670500,3.87767041015625,0.012298583984375,1.1566314697265625,-0.05657958984375
1774159258979663400,3.897663330078125,-0.3119049072265625,0.9140625,0.09906005859375
1774159258999656400,3.917656494140625,-0.108734130859375,0.994110107421875,-0.0528411865234375
1774159259019649500,3.9376494140625,-0.1546630859375,0.9631805419921875,-0.0564422607421875
1774159259039641300,3.957641357421875,-0.000152587890625,1.017730712890625,-0.0663909912109375
1774159259059634400,3.977634521484375,0.0051727294921875,1.0197906494140625,-0.076324462890625
1774159259079627500,3.99762744140625,0.08551025390625,0.9892120361328125,-0.1560516357421875
1774159259099620400,4.017620361328125,0.1422882080078125,0.7923583984375,-0.1877593994140625
1774159259119613400,4.037613525390625,-0.02447509765625,0.9640045166015625,-0.07989501953125
1774159259139606500,4.0576064453125,-0.1241455078125,1.013671875,-0.0823516845703125
1774159259159599600,4.077599609375,-0.100250244140625,0.969757080078125,-0.194580078125
1774159259179592400,4.097592529296875,-0.075531005859375,0.867523193359375,-0.266326904296875
1774159259199585500,4.11758544921875,-0.072418212890625,0.8802032470703125,-0.28472900390625
1774159259219578600,4.13757861328125,-0.0744781494140625,0.9503326416015625,-0.2415771484375
1774159259239571500,4.157571533203125,-0.161346435546875,0.9328460693359375,-0.287750244140625
1774159259259564300,4.177564208984375,0.1046905517578125,1.0074310302734375,-0.3598480224609375
1774159259279557400,4.197557373046875,0.059295654296875,1.0229949951171875,-0.0687103271484375
1774159259299550500,4.217550537109375,-0.07318115234375,1.200897216796875,-0.1197967529296875
1774159259319543300,4.237543212890625,0.089935302734375,0.9875640869140625,-0.1036376953125
1774159259339536400,4.257536376953125,0.03955078125,0.975555419921875,-0.069061279296875
1774159259359529500,4.277529541015625,0.0707244873046875,0.9586181640625,-0.0804290771484375
1774159259379522600,4.2975224609375,-0.0542449951171875,1.0189208984375,-0.1107940673828125
1774159259399515400,4.317515380859375,0.01715087890625,1.0108489990234375,-0.1737060546875
1774159259419507500,4.337507568359375,0.0114288330078125,0.934814453125,-0.121978759765625
1774159259439500300,4.357500244140625,-0.00762939453125,0.86346435546875,-0.1236419677734375
1774159259459493400,4.377493408203125,0.110504150390625,0.9103851318359375,-0.127410888671875
1774159259479486500,4.397486572265625,0.015625,0.9723663330078125,-0.092620849609375
1774159259499479600,4.4174794921875,-0.0905609130859375,0.9999847412109375,-0.0861663818359375
1774159259519472400,4.437472412109375,-0.0923309326171875,0.9143829345703125,-0.1323089599609375
1774159259539465500,4.457465576171875,-0.0014495849609375,0.928955078125,-0.1880035400390625
1774159259559458600,4.47745849609375,-0.11956787109375,0.9991302490234375,-0.1349334716796875
1774159259579451600,4.49745166015625,-0.0080718994140625,1.03070068359375,-0.0636138916015625
1774159259599444500,4.517444580078125,0.1137237548828125,1.0809173583984375,-0.115631103515625
1774159259619437600,4.5374375,-0.046905517578125,1.05963134765625,-0.238800048828125
1774159259639430400,4.557430419921875,0.049041748046875,1.0296478271484375,-0.1859588623046875
1774159259659423200,4.57742333984375,-0.0920257568359375,0.939971923828125,-0.05938720703125
1774159259679416300,4.597416259765625,0.0281982421875,0.9889678955078125,-0.056396484375
1774159259699409400,4.617409423828125,-0.048736572265625,0.9320526123046875,-0.04058837890625
1774159259719404300,4.637404296875,-0.10723876953125,0.9766082763671875,-0.0731353759765625
1774159259739397000,4.657397216796875,-0.095428466796875,0.998138427734375,-0.1452484130859375
1774159259759390200,4.67739013671875,-0.1027374267578125,0.95074462890625,-0.197021484375
1774159259779383300,4.69738330078125,-0.1851959228515625,0.824462890625,-0.1474456787109375
1774159259799376100,4.717376220703125,-0.1988372802734375,0.7243804931640625,-0.065521240234375
1774159259819369000,4.737368896484375,-0.5206451416015625,0.9777984619140625,-0.0993804931640625
1774159259839361300,4.757361328125,-0.484527587890625,1.125335693359375,-0.04376220703125
1774159259859354000,4.77735400390625,-0.304779052734375,1.23175048828125,-0.0558929443359375
1774159259879347200,4.79734716796875,-0.1361236572265625,0.9720306396484375,-0.181396484375
1774159259899340000,4.817340087890625,0.193389892578125,0.7715301513671875,-0.150482177734375
1774159259919333000,4.8373330078125,0.0711517333984375,0.9617462158203125,-0.2190093994140625
1774159259939326000,4.857325927734375,-0.100738525390625,1.15399169921875,-0.33538818359375
1774159259959319000,4.877319091796875,-0.080291748046875,0.98187255859375,-0.233489990234375
1774159259979312000,4.89731201171875,-0.151947021484375,0.95355224609375,-0.1356964111328125
1774159259999305000,4.917304931640625,-0.173736572265625,1.03668212890625,-0.122955322265625
1774159260019298000,4.937298095703125,-0.2557220458984375,1.10601806640625,-0.158905029296875
1774159260039291100,4.957291015625,-0.2173919677734375,1.06787109375,-0.1458740234375
1774159260059284200,4.9772841796875,-0.0620269775390625,1.04046630859375,-0.158294677734375
1774159260079277000,4.997277099609375,-0.036773681640625,1.0563812255859375,-0.1667327880859375
1774159260099270100,5.017270263671875,-0.042388916015625,1.065338134765625,-0.1378936767578125
1774159260119263200,5.03726318359375,-0.1176605224609375,1.015960693359375,-0.0958099365234375
1774159260139256000,5.057256103515625,-0.0474853515625,1.02496337890625,-0.128570556640625
1774159260159249200,5.077249267578125,-0.20977783203125,0.824676513671875,-0.1658477783203125
1774159260179242200,5.0972421875,-0.0811920166015625,0.939544677734375,-0.2816162109375
1774159260199235300,5.1172353515625,0.014892578125,0.9477386474609375,-0.215301513671875
1774159260219228000,5.137227783203125,-0.1342315673828125,0.8472137451171875,-0.124786376953125
1774159260239221000,5.157220947265625,-0.025909423828125,0.942352294921875,-0.134033203125
1774159260259214000,5.177214111328125,-0.3256378173828125,0.87060546875,-0.1062774658203125
1774159260279207200,5.197207275390625,-0.0880584716796875,0.90478515625,-0.09393310546875
1774159260299200000,5.217199951171875,-0.1878662109375,0.9666748046875,-0.1644287109375
1774159260319193000,5.237193115234375,-0.2873687744140625,0.952850341796875,-0.1796875
1774159260339186200,5.257186279296875,-0.1613311767578125,1.086029052734375,-0.206329345703125
1774159260359179000,5.277178955078125,-0.0579986572265625,0.9775238037109375,-0.230621337890625
1774159260379172000,5.297172119140625,-0.047882080078125,0.9517822265625,-0.134185791015625
1774159260399165200,5.317165283203125,-0.004302978515625,1.0561676025390625,-0.194580078125
1774159260419158300,5.337158203125,0.0115966796875,1.070648193359375,-0.1418914794921875
1774159260439151000,5.357151123046875,-0.0596923828125,1.0163726806640625,-0.198394775390625
1774159260459143200,5.37714306640625,-0.116943359375,0.956512451171875,-0.19964599609375
1774159260479136300,5.39713623046875,-0.1129913330078125,0.9071197509765625,-0.1381072998046875
1774159260499129000,5.417129150390625,-0.0824127197265625,0.9578704833984375,-0.1082611083984375
1774159260519122200,5.4371220703125,-0.034271240234375,0.936920166015625,-0.12994384765625
1774159260539115300,5.457115234375,-0.04052734375,0.9176483154296875,-0.153045654296875
1774159260559108000,5.477108154296875,-0.0641937255859375,0.910430908203125,-0.1484832763671875
1774159260579101200,5.49710107421875,-0.06866455078125,0.917572021484375,-0.1224517822265625
1774159260599094300,5.51709423828125,-0.0963134765625,0.9681396484375,-0.1534271240234375
1774159260619087000,5.537087158203125,-0.149749755859375,0.9080810546875,-0.12725830078125
1774159260639080000,5.557079833984375,-0.1071014404296875,1.0070037841796875,-0.085693359375
1774159260659073000,5.577072998046875,-0.090911865234375,0.991851806640625,-0.1152496337890625
1774159260679066000,5.597066162109375,-0.0916290283203125,0.9953460693359375,-0.1059112548828125
1774159260699059000,5.617058837890625,-0.203125,0.9595947265625,-0.1553192138671875
1774159260719049700,5.6370498046875,0.1776580810546875,1.0491943359375,-0.09521484375
1774159260739042600,5.65704248046875,0.062469482421875,1.0237579345703125,-0.072479248046875
1774159260759035600,5.67703564453125,-0.0273284912109375,0.9564971923828125,-0.12188720703125
1774159260779028700,5.69702880859375,0.0997161865234375,0.9972381591796875,-0.176239013671875
1774159260799021600,5.717021484375,0.0605316162109375,0.9772491455078125,-0.1697235107421875
1774159260819014700,5.7370146484375,-0.092010498046875,0.955047607421875,-0.139404296875
1774159260839007700,5.7570078125,-0.225189208984375,0.9843292236328125,-0.1844024658203125
1774159260859000600,5.77700048828125,-0.08636474609375,0.9589996337890625,-0.157501220703125
1774159260878993400,5.796993408203125,0.041473388671875,1.0241851806640625,-0.1042327880859375
1774159260898986500,5.816986572265625,0.108795166015625,1.0411224365234375,-0.0196075439453125
1774159260918979600,5.8369794921875,-0.111907958984375,1.0312652587890625,-0.0199737548828125
1774159260938972400,5.856972412109375,0.2633819580078125,0.9215850830078125,-0.0117340087890625
1774159260958965500,5.876965576171875,0.0717315673828125,1.024322509765625,-0.11090087890625
1774159260978958600,5.89695849609375,0.12823486328125,1.1306304931640625,-0.160369873046875
1774159260998951700,5.91695166015625,0.1085662841796875,1.06744384765625,-0.1097869873046875
1774159261018944500,5.936944580078125,0.0765228271484375,1.1033935546875,-0.08544921875
1774159261038937600,5.9569375,0.152252197265625,1.087646484375,-0.0639190673828125
1774159261058930700,5.9769306640625,0.1358795166015625,1.032440185546875,-0.03753662109375
1774159261078923500,5.996923583984375,0.1294403076171875,1.0507049560546875,-0.016876220703125
1774159261098916600,6.01691650390625,-0.037841796875,1.1004180908203125,-0.0683746337890625
1774159261118909700,6.03690966796875,-0.0043792724609375,1.1244049072265625,-0.06915283203125
1774159261138902800,6.05690283203125,0.109130859375,1.2129974365234375,-0.08306884765625
1774159261158895600,6.0768955078125,-0.0178375244140625,1.1333160400390625,-0.1097412109375
1774159261178888400,6.096888427734375,-0.0093231201171875,0.95263671875,-0.1702117919921875
1774159261198881500,6.116881591796875,-0.0530548095703125,0.77618408203125,-0.0941009521484375
1774159261218874600,6.13687451171875,-0.118988037109375,0.7606201171875,-0.02264404296875
1774159261238867500,6.156867431640625,-0.004852294921875,0.903778076171875,-0.148681640625
1774159261258860500,6.176860595703125,-0.3411865234375,0.6658935546875,-0.1008758544921875
1774159261278853600,6.196853515625,-0.2506103515625,0.7419281005859375,-0.1962127685546875
1774159261298846500,6.216846435546875,-0.1860809326171875,0.8899993896484375,-0.2805938720703125
1774159261318839600,6.236839599609375,-0.1782073974609375,1.0125732421875,-0.3598175048828125
1774159261338832600,6.25683251953125,-0.156768798828125,1.14190673828125,-0.40667724609375
1774159261358825700,6.27682568359375,-0.002716064453125,1.10845947265625,-0.362762451171875
1774159261378818600,6.296818603515625,0.2446746826171875,1.0717620849609375,-0.1561431884765625
1774159261398811600,6.316811767578125,0.3421478271484375,1.0524444580078125,-0.046875
1774159261418804700,6.3368046875,0.0328216552734375,0.9472808837890625,-0.13800048828125
1774159261438797600,6.356797607421875,0.1201171875,0.8964996337890625,-0.1715087890625
1774159261458790700,6.376790771484375,0.109222412109375,0.9625244140625,-0.207733154296875
1774159261478783500,6.396783447265625,0.0873565673828125,0.9229278564453125,-0.254180908203125
1774159261498776600,6.416776611328125,0.07623291015625,0.878265380859375,-0.2562713623046875
1774159261518769400,6.436769287109375,-0.006500244140625,0.936767578125,-0.1912078857421875
1774159261538762500,6.456762451171875,0.16326904296875,0.97369384765625,-0.197509765625
1774159261558755600,6.476755615234375,0.0726318359375,0.91241455078125,-0.2238311767578125
1774159261578748400,6.49674853515625,0.0495147705078125,0.9171600341796875,-0.2469329833984375
1774159261598741500,6.516741455078125,0.1380157470703125,0.9281463623046875,-0.263519287109375
1774159261618734600,6.536734619140625,0.1429290771484375,0.9633941650390625,-0.272796630859375
1774159261638727700,6.556727783203125,0.102508544921875,0.9506683349609375,-0.2103271484375
1774159261658720500,6.576720458984375,-0.0545654296875,0.9519805908203125,-0.1352691650390625
1774159261678713600,6.596713623046875,-0.0519561767578125,0.99066162109375,-0.136260986328125
1774159261698706700,6.616706787109375,0.04376220703125,0.9443359375,-0.1941070556640625
1774159261718699300,6.63669921875,-0.01336669921875,0.9143218994140625,-0.22149658203125
1774159261738692400,6.6566923828125,0.1252899169921875,0.9464874267578125,-0.236114501953125
1774159261758685400,6.676685546875,0.137451171875,0.9729156494140625,-0.2004852294921875
1774159261778678500,6.696678466796875,0.0742645263671875,1.0317535400390625,-0.110443115234375
1774159261798671400,6.71667138671875,0.1230010986328125,0.986572265625,-0.117828369140625
1774159261818664200,6.736664306640625,-0.0513916015625,0.9244842529296875,-0.16131591796875
1774159261838657300,6.7566572265625,-0.0413970947265625,0.949920654296875,-0.1845703125
1774159261858650000,6.776650146484375,0.09332275390625,0.9998321533203125,-0.19488525390625
1774159261878643200,6.796643310546875,0.0478668212890625,1.0332183837890625,-0.18133544921875
1774159261898636300,6.81663623046875,0.0335845947265625,1.06317138671875,-0.1498260498046875
1774159261918629400,6.83662939453125,0.0709686279296875,1.062835693359375,-0.0634002685546875
1774159261938623500,6.85662353515625,0.149566650390625,1.0921630859375,-0.070648193359375
1774159261958616300,6.8766162109375,0.02056884765625,1.10003662109375,-0.082000732421875
1774159261978609400,6.896609375,0.045074462890625,1.1141815185546875,-0.2165679931640625
1774159261998602500,6.9166025390625,-0.0599822998046875,1.094451904296875,-0.288909912109375
1774159262018595300,6.93659521484375,-0.061614990234375,1.1733245849609375,-0.2499847412109375
1774159262038588200,6.956588134765625,-0.036102294921875,1.1734619140625,-0.20220947265625
1774159262058581200,6.976581298828125,0.01043701171875,1.0459747314453125,-0.1651153564453125
1774159262078574300,6.99657421875,-0.0058135986328125,0.9715728759765625,-0.1231689453125
1774159262098567200,7.016567138671875,0.0052490234375,0.897125244140625,-0.0685272216796875
1774159262118560300,7.036560302734375,-0.07049560546875,0.818695068359375,-0.0508270263671875
1774159262138553300,7.05655322265625,-0.1229248046875,0.77252197265625,-0.072052001953125
1774159262158546200,7.076546142578125,-0.1279296875,0.79779052734375,-0.1328277587890625
1774159262178539300,7.096539306640625,-0.1741485595703125,0.8654632568359375,-0.1825714111328125
1774159262198532400,7.116532470703125,-0.26837158203125,0.92120361328125,-0.2137908935546875
1774159262218525400,7.136525390625,-0.3184661865234375,0.9507598876953125,-0.195465087890625
1774159262238518300,7.156518310546875,-0.159881591796875,1.0057373046875,-0.1071014404296875
1774159262258511400,7.176511474609375,0.140045166015625,1.0462799072265625,-0.0265655517578125
1774159262278504400,7.19650439453125,0.0014495849609375,1.100677490234375,-0.0497589111328125
1774159262298497500,7.21649755859375,-0.034210205078125,1.0966796875,-0.0476837158203125
1774159262318490400,7.236490478515625,-0.0033111572265625,1.0294189453125,-0.0143280029296875
1774159262338483500,7.2564833984375,-0.0102386474609375,0.9805145263671875,-0.0540924072265625
1774159262358476300,7.276476318359375,-0.022857666015625,0.915313720703125,-0.0873260498046875
1774159262378469000,7.29646923828125,-0.0425262451171875,0.8829193115234375,-0.115814208984375
1774159262398462200,7.316462158203125,-0.054443359375,0.887969970703125,-0.1002044677734375
1774159262418455300,7.336455322265625,-0.0191497802734375,0.9646453857421875,-0.0634918212890625
1774159262438448400,7.356448486328125,0.0169219970703125,1.0194091796875,-0.0922698974609375
1774159262458441200,7.376441162109375,0.0188751220703125,0.999053955078125,-0.1320648193359375
1774159262478434300,7.396434326171875,-0.010711669921875,0.9653167724609375,-0.202789306640625
1774159262498427400,7.416427490234375,-0.0334930419921875,0.955322265625,-0.2139739990234375
1774159262518420200,7.436420166015625,0.00213623046875,0.9530487060546875,-0.126556396484375
1774159262538413300,7.456413330078125,0.025421142578125,0.975311279296875,-0.142578125
1774159262558406400,7.476406494140625,0.0275115966796875,0.95660400390625,-0.111328125
1774159262578399500,7.4963994140625,-0.0019989013671875,0.932586669921875,-0.022796630859375
1774159262598392300,7.516392333984375,0.021697998046875,1.0028076171875,-0.086395263671875
1774159262618385400,7.536385498046875,0.03387451171875,0.98272705078125,-0.156402587890625
1774159262638378500,7.55637841796875,-0.030853271484375,0.9668121337890625,-0.1559906005859375
1774159262658371300,7.576371337890625,-0.0447998046875,0.981719970703125,-0.1360931396484375
1774159262678365200,7.596365234375,0.0289306640625,0.996673583984375,-0.0999298095703125
1774159262698358300,7.616358154296875,0.03729248046875,1.0343780517578125,-0.0812835693359375
1774159262718352400,7.636352294921875,0.0175628662109375,1.084197998046875,-0.0859222412109375
1774159262738345500,7.656345458984375,0.06658935546875,1.1029815673828125,-0.05657958984375
1774159262758338300,7.67633837890625,0.0977325439453125,1.1235809326171875,-0.095611572265625
1774159262778331400,7.696331298828125,0.0659637451171875,1.094329833984375,-0.0796966552734375
1774159262798324200,7.71632421875,0.044769287109375,1.1128692626953125,0.0030517578125
1774159262818317300,7.7363173828125,0.03570556640625,1.102386474609375,-0.0252838134765625
1774159262838310100,7.75631005859375,-0.0192108154296875,1.1509246826171875,-0.121978759765625
1774159262858303200,7.77630322265625,-0.0029754638671875,1.23052978515625,-0.1798553466796875
1774159262878296300,7.79629638671875,0.007354736328125,1.18426513671875,-0.2183380126953125
1774159262898289400,7.816289306640625,0.0107574462890625,1.0462493896484375,-0.212860107421875
1774159262918282200,7.8362822265625,-0.0113677978515625,0.9445648193359375,-0.1796417236328125
1774159262938275300,7.856275390625,-0.0001068115234375,0.8133087158203125,-0.1804656982421875
1774159262958268400,7.876268310546875,-0.0991973876953125,0.7704315185546875,-0.237762451171875
1774159262978261200,7.89626123046875,-0.0404815673828125,0.673736572265625,-0.274566650390625
1774159262998254300,7.91625439453125,-0.040130615234375,0.722259521484375,-0.2856597900390625
1774159263018247400,7.936247314453125,0.0058746337890625,0.8910980224609375,-0.3446807861328125
1774159263038240500,7.956240478515625,0.101043701171875,0.9923858642578125,-0.3497314453125
1774159263058233300,7.9762333984375,0.1365814208984375,1.1196746826171875,-0.2975006103515625
1774159263078226400,7.996226318359375,0.1392669677734375,1.170989990234375,-0.2540435791015625
1774159263098219500,8.016219482421874,0.0843505859375,1.0737762451171875,-0.20318603515625
1774159263118213400,8.03621337890625,0.060211181640625,0.98858642578125,-0.177459716796875
1774159263138206200,8.056206298828124,0.008941650390625,0.92596435546875,-0.1566009521484375
1774159263158199300,8.07619921875,0.0141143798828125,0.8595733642578125,-0.1062164306640625
1774159263178192400,8.0961923828125,0.0539703369140625,0.8450775146484375,-0.1070098876953125
1774159263198185500,8.116185546875,0.111297607421875,0.916473388671875,-0.1533050537109375
1774159263218178300,8.13617822265625,0.162353515625,1.01397705078125,-0.1684722900390625
1774159263238171400,8.15617138671875,0.093719482421875,0.95294189453125,-0.1991424560546875
1774159263258164500,8.17616455078125,0.112457275390625,0.9233245849609375,-0.232208251953125
1774159263278157300,8.1961572265625,0.13104248046875,0.920928955078125,-0.2537384033203125
1774159263298150400,8.216150390625,0.0945281982421875,0.8871307373046875,-0.237579345703125
1774159263318143500,8.2361435546875,0.116241455078125,0.8708038330078125,-0.199676513671875
1774159263338136300,8.25613623046875,0.1154022216796875,0.9300384521484375,-0.2092132568359375
1774159263358129200,8.276129150390625,0.0990753173828125,0.9486236572265625,-0.175628662109375
1774159263378122200,8.296122314453125,0.1461944580078125,0.965179443359375,-0.1443939208984375
1774159263398115300,8.316115234375,0.1274566650390625,0.9749908447265625,-0.137237548828125
1774159263418108200,8.336108154296875,0.1846923828125,0.9339141845703125,-0.124359130859375
1774159263438101200,8.356101318359375,0.1345672607421875,0.93017578125,-0.0629730224609375
1774159263458094300,8.37609423828125,0.12640380859375,0.9452056884765625,-0.075286865234375
1774159263478087400,8.39608740234375,0.138671875,0.9843597412109375,-0.212371826171875
1774159263498081300,8.416081298828125,0.1111602783203125,0.948577880859375,-0.27313232421875
1774159263518074400,8.436074462890625,0.182952880859375,0.8983154296875,-0.198150634765625
1774159263538067500,8.4560673828125,0.1370086669921875,0.9830474853515625,-0.227386474609375
1774159263558060300,8.476060302734375,0.1449127197265625,1.0229034423828125,-0.2689666748046875
1774159263578053000,8.49605322265625,0.1881256103515625,1.020965576171875,-0.2247467041015625
1774159263598046200,8.516046142578125,0.1940155029296875,1.052642822265625,-0.1558074951171875
1774159263618039300,8.536039306640625,0.16070556640625,1.0879364013671875,-0.1428985595703125
1774159263638032400,8.556032470703125,0.14495849609375,1.0751800537109375,-0.1756439208984375
1774159263658025200,8.576025146484374,0.122802734375,1.0506439208984375,-0.177581787109375
1774159263678018300,8.596018310546874,0.120391845703125,1.173919677734375,-0.262176513671875
1774159263698011400,8.616011474609374,0.1050872802734375,1.2838287353515625,-0.33544921875
1774159263718003700,8.636003662109376,0.009124755859375,1.2067718505859375,-0.36273193359375
1774159263737996800,8.655996826171876,-0.06640625,1.0019073486328125,-0.2292022705078125
1774159263757990000,8.675989990234376,-0.0040435791015625,0.8072509765625,-0.0476226806640625
1774159263777982700,8.695982666015626,0.07305908203125,0.73809814453125,-0.1354827880859375
1774159263797975800,8.715975830078126,0.005828857421875,0.7487030029296875,-0.1822662353515625
1774159263817969000,8.735968994140626,-0.1635894775390625,0.828704833984375,-0.2174224853515625
1774159263837962800,8.755962646484376,-0.1281280517578125,0.9285888671875,-0.278839111328125
1774159263857955800,8.775955810546876,-0.21356201171875,0.9815673828125,-0.2838592529296875
1774159263877948700,8.79594873046875,-0.0891265869140625,1.0142059326171875,-0.259735107421875
1774159263897941800,8.815941650390625,0.0213470458984375,1.05218505859375,-0.22601318359375
1774159263917934800,8.835934814453125,0.0754852294921875,1.0230865478515625,-0.172637939453125
1774159263937927700,8.855927734375,0.12042236328125,1.02105712890625,-0.1497802734375
1774159263957920800,8.875920654296875,0.085418701171875,1.0292205810546875,-0.1643829345703125
1774159263977913900,8.895913818359375,0.0980072021484375,1.0044097900390625,-0.20526123046875
1774159263997907000,8.915906982421875,0.03985595703125,0.927490234375,-0.223480224609375
1774159264017899800,8.935899658203125,0.0264892578125,0.871734619140625,-0.2169647216796875
1774159264037892900,8.955892822265625,0.029876708984375,0.8955230712890625,-0.20172119140625
1774159264057886000,8.975885986328125,0.027435302734375,0.91973876953125,-0.2235870361328125
1774159264077878800,8.995878662109375,0.04144287109375,0.952972412109375,-0.208282470703125
1774159264097872000,9.015871826171875,0.0602874755859375,0.96435546875,-0.176605224609375
1774159264117865000,9.035864990234375,0.056182861328125,0.9875640869140625,-0.1663970947265625
1774159264137857800,9.05585791015625,0.0264434814453125,0.9245452880859375,-0.1883392333984375
1774159264157852000,9.075851806640625,0.0352935791015625,0.9215240478515625,-0.174591064453125
1774159264177844700,9.0958447265625,0.0443572998046875,0.91357421875,-0.194427490234375
1774159264197837800,9.115837890625,0.0395050048828125,0.9237213134765625,-0.1767578125
1774159264217831000,9.135830810546874,0.08917236328125,0.9624176025390625,-0.2102508544921875
1774159264237823700,9.15582373046875,0.04547119140625,0.933013916015625,-0.227203369140625
1774159264257816800,9.17581689453125,0.07086181640625,0.917144775390625,-0.1727752685546875
1774159264277810000,9.195809814453124,0.0195159912109375,0.97857666015625,-0.161712646484375
1774159264297803000,9.215802978515624,0.0926361083984375,0.97021484375,-0.1869964599609375
1774159264317795800,9.2357958984375,0.0787811279296875,0.929931640625,-0.211395263671875
1774159264337789000,9.255788818359376,0.066680908203125,0.932769775390625,-0.1913909912109375
1774159264357781800,9.27578173828125,0.05377197265625,1.0253753662109375,-0.1768035888671875
1774159264377774600,9.295774658203126,0.086029052734375,1.0794525146484375,-0.1757049560546875
1774159264397767700,9.315767578125,0.1094207763671875,1.0180511474609375,-0.1909942626953125
1774159264417760800,9.3357607421875,0.14013671875,0.967498779296875,-0.212310791015625
1774159264437755000,9.3557548828125,0.2026519775390625,1.0263214111328125,-0.2182159423828125
1774159264457748000,9.375748046875,0.188629150390625,1.17388916015625,-0.2059478759765625
1774159264477740800,9.39574072265625,0.1477813720703125,1.18023681640625,-0.1945343017578125
1774159264497734000,9.41573388671875,0.09185791015625,1.09442138671875,-0.142364501953125
1774159264517727000,9.43572705078125,0.082122802734375,1.1074371337890625,-0.1885223388671875
1774159264537719800,9.4557197265625,0.0825653076171875,1.1269073486328125,-0.2931365966796875
1774159264557713000,9.475712890625,0.0528717041015625,1.1251678466796875,-0.30126953125
1774159264577706000,9.4957060546875,0.067962646484375,1.0729827880859375,-0.360992431640625
1774159264597698800,9.51569873046875,0.0771026611328125,0.987823486328125,-0.291351318359375
1774159264617691600,9.535691650390625,0.0451507568359375,0.8872222900390625,-0.2296905517578125
1774159264637684700,9.555684814453125,0.020599365234375,0.7021026611328125,-0.2139129638671875
1774159264657677800,9.575677734375,0.026123046875,0.6753997802734375,-0.2698974609375
1774159264677670700,9.595670654296875,0.0730133056640625,0.7756195068359375,-0.3576812744140625
1774159264697663700,9.615663818359375,0.1161041259765625,0.8314666748046875,-0.4649200439453125
1774159264717657600,9.63565771484375,0.2031402587890625,0.9161529541015625,-0.4803009033203125
1774159264737650400,9.655650390625,0.24615478515625,1.027099609375,-0.484405517578125
1774159264757643500,9.6756435546875,0.2296905517578125,1.01849365234375,-0.4474334716796875
1774159264777636600,9.69563671875,0.1319580078125,0.9829864501953125,-0.406890869140625
1774159264797629400,9.71562939453125,0.083709716796875,0.9337310791015625,-0.34344482421875
1774159264817622500,9.73562255859375,0.1033782958984375,0.917510986328125,-0.2455596923828125
1774159264837615600,9.75561572265625,0.1847686767578125,0.929229736328125,-0.288299560546875
1774159264857608400,9.7756083984375,0.1983642578125,0.877655029296875,-0.3323822021484375
1774159264877601300,9.795601318359376,0.175994873046875,0.819488525390625,-0.3433074951171875
1774159264897594400,9.815594482421876,0.1805419921875,0.8174285888671875,-0.330169677734375
1774159264917587500,9.83558740234375,0.214630126953125,0.8325653076171875,-0.3768310546875
1774159264937580300,9.855580322265626,0.1779022216796875,0.82403564453125,-0.368255615234375
1774159264957574400,9.875574462890626,0.139923095703125,0.8276214599609375,-0.341064453125
1774159264977567500,9.8955673828125,0.1798553466796875,0.864471435546875,-0.4062347412109375
1774159264997560600,9.915560546875,0.21942138671875,0.8455810546875,-0.3862762451171875
1774159265017553700,9.9355537109375,0.20166015625,0.80657958984375,-0.3275146484375
1774159265037546500,9.95554638671875,0.151763916015625,0.8382110595703125,-0.2911224365234375
1774159265057539600,9.97553955078125,0.16741943359375,0.882537841796875,-0.2970123291015625
1774159265077532400,9.995532470703125,0.2216796875,0.8954010009765625,-0.326629638671875
1774159265097525200,10.015525146484375,0.1346893310546875,0.9228973388671875,-0.3447723388671875
1774159265117518300,10.035518310546875,0.199951171875,0.971954345703125,-0.4222259521484375
1774159265137511400,10.055511474609375,0.2101287841796875,0.9453887939453125,-0.3316192626953125
1774159265157504500,10.07550439453125,0.2254638671875,0.79010009765625,-0.3081207275390625
1774159265177498400,10.095498291015625,0.3031158447265625,0.89239501953125,-0.3717498779296875
1774159265197491500,10.115491455078125,0.219451904296875,0.9169769287109375,-0.35968017578125
1774159265217484500,10.135484619140625,0.2126312255859375,1.104827880859375,-0.3134307861328125
1774159265237477600,10.1554775390625,0.206817626953125,1.067108154296875,-0.3084869384765625
1774159265257470500,10.175470458984375,0.0991973876953125,0.9636383056640625,-0.18536376953125
1774159265277463600,10.195463623046875,0.1619720458984375,1.08685302734375,-0.2714691162109375
1774159265297456400,10.215456298828125,0.1968536376953125,1.1439056396484375,-0.3923187255859375
1774159265317449200,10.23544921875,0.167144775390625,1.191986083984375,-0.5139923095703125
1774159265337442300,10.2554423828125,0.155029296875,1.166229248046875,-0.50201416015625
1774159265357435400,10.275435302734374,0.12646484375,1.0474090576171875,-0.4033966064453125
1774159265377428500,10.295428466796874,0.2000732421875,0.9630126953125,-0.3626708984375
1774159265397421300,10.31542138671875,0.1794586181640625,0.81219482421875,-0.361541748046875
1774159265417415400,10.33541552734375,0.057769775390625,0.671875,-0.37640380859375
1774159265437408500,10.355408447265624,-0.005828857421875,0.81610107421875,-0.3001251220703125
1774159265457401600,10.375401611328124,0.0692596435546875,1.01824951171875,-0.242218017578125
1774159265477394400,10.39539453125,-0.0996856689453125,0.941192626953125,-0.2846527099609375
1774159265497387500,10.415387451171876,-0.1821136474609375,0.7809600830078125,-0.3316802978515625
1774159265517380400,10.43538037109375,0.070892333984375,0.9142913818359375,-0.19989013671875
1774159265537373400,10.45537353515625,-0.059967041015625,0.933319091796875,-0.1837158203125
1774159265557366300,10.4753662109375,0.042999267578125,1.0028839111328125,-0.1698150634765625
1774159265577359400,10.495359375,0.1647186279296875,1.109344482421875,-0.3643951416015625
1774159265597352400,10.5153525390625,0.2703704833984375,0.9456939697265625,-0.4354705810546875
1774159265617345300,10.53534521484375,0.256683349609375,0.9011993408203125,-0.3447265625
1774159265637339400,10.55533935546875,0.151336669921875,0.92108154296875,-0.2472076416015625
1774159265657332500,10.57533251953125,0.0756683349609375,0.9304351806640625,-0.2009735107421875
1774159265677325600,10.59532568359375,0.039337158203125,0.9004058837890625,-0.103424072265625
1774159265697318700,10.615318603515625,0.04827880859375,1.02593994140625,-0.2203369140625
1774159265717311700,10.635311767578125,0.13922119140625,0.8320465087890625,-0.34027099609375
1774159265737304600,10.6553046875,0.1358795166015625,0.8860321044921875,-0.286865234375
1774159265757297700,10.675297607421875,0.142608642578125,0.8828582763671875,-0.3057403564453125
1774159265777290500,10.69529052734375,0.1163787841796875,0.856781005859375,-0.3266143798828125
1774159265797283600,10.71528369140625,0.1374053955078125,0.8998870849609375,-0.2776947021484375
1774159265817276700,10.735276611328125,0.1412353515625,0.950775146484375,-0.1874847412109375
1774159265837270800,10.755270751953125,0.1305389404296875,0.97320556640625,-0.2340087890625
1774159265857263900,10.775263916015625,0.158905029296875,0.9199066162109375,-0.205474853515625
1774159265877256700,10.795256591796875,0.194122314453125,0.8884124755859375,-0.2261505126953125
1774159265897249800,10.815249755859375,0.15594482421875,0.9092864990234375,-0.1628875732421875
1774159265917243000,10.835242919921875,0.135345458984375,1.077911376953125,-0.41412353515625
1774159265937235700,10.855235595703125,0.1697540283203125,0.9421844482421875,-0.1786956787109375
1774159265957228500,10.875228515625,0.184967041015625,0.8518829345703125,-0.271697998046875
1774159265977221600,10.8952216796875,0.1642913818359375,0.92889404296875,-0.269561767578125
1774159265997214700,10.915214599609374,0.1655731201171875,1.0300750732421875,-0.2917633056640625
1774159266017207600,10.93520751953125,0.1873779296875,1.0142059326171875,-0.31011962890625
1774159266037201700,10.95520166015625,0.1291046142578125,0.9382781982421875,-0.2562408447265625
1774159266057194800,10.97519482421875,0.1912994384765625,0.9655303955078125,-0.224456787109375
1774159266077187800,10.995187744140624,0.1553802490234375,0.9738616943359375,-0.1718902587890625
1774159266097180700,11.0151806640625,0.24053955078125,1.0628204345703125,-0.2071380615234375
1774159266117173800,11.035173828125,0.261810302734375,1.077362060546875,-0.2956390380859375
1774159266137166800,11.055166748046876,0.2225189208984375,1.09124755859375,-0.2719879150390625
1774159266157159700,11.07515966796875,0.165313720703125,1.0989532470703125,-0.2191619873046875
1774159266177152500,11.095152587890626,0.08245849609375,1.1079254150390625,-0.1765594482421875
1774159266197145600,11.1151455078125,0.0459747314453125,1.0876922607421875,-0.1730499267578125
1774159266217138700,11.135138671875,0.081756591796875,1.055755615234375,-0.2476348876953125
1774159266237132800,11.1551328125,0.08978271484375,1.0597991943359375,-0.33099365234375
1774159266257125600,11.175125732421876,0.077850341796875,1.03466796875,-0.3014678955078125
1774159266277118700,11.19511865234375,0.0720062255859375,0.936553955078125,-0.2737579345703125
1774159266297111800,11.21511181640625,-0.0050048828125,0.842864990234375,-0.2444000244140625
1774159266317105000,11.23510498046875,-0.1118621826171875,0.8104400634765625,-0.2679443359375
1774159266337097700,11.25509765625,-0.018829345703125,0.706756591796875,-0.3151397705078125
1774159266357090800,11.2750908203125,-0.0890960693359375,0.761962890625,-0.3462371826171875
1774159266377084000,11.295083984375,0.1054840087890625,0.843017578125,-0.42559814453125
1774159266397076500,11.315076416015625,0.1040802001953125,0.905731201171875,-0.4953155517578125
1774159266417070600,11.335070556640625,0.1598968505859375,1.02825927734375,-0.5342864990234375
1774159266437063700,11.355063720703125,0.1147918701171875,1.013031005859375,-0.4472198486328125
1774159266457056800,11.375056884765625,0.10443115234375,0.9647064208984375,-0.2888031005859375
1774159266477049600,11.395049560546875,0.1097412109375,0.9031982421875,-0.2632598876953125
1774159266497042700,11.415042724609375,0.0897674560546875,0.8838653564453125,-0.3087615966796875
1774159266517035800,11.435035888671875,0.096588134765625,0.8959503173828125,-0.326568603515625
1774159266537028900,11.45502880859375,0.12237548828125,0.9124755859375,-0.35150146484375
1774159266557021700,11.475021728515625,0.120849609375,0.8845977783203125,-0.329193115234375
1774159266577014800,11.495014892578125,0.1161956787109375,0.881866455078125,-0.29742431640625
1774159266597008600,11.515008544921875,0.022247314453125,0.7067108154296875,-0.282073974609375
1774159266617001700,11.535001708984375,0.2877960205078125,0.993682861328125,-0.3132781982421875
1774159266636994600,11.55499462890625,0.0338134765625,0.9619140625,-0.395233154296875
1774159266656987600,11.574987548828124,0.1453704833984375,0.844451904296875,-0.32098388671875
1774159266676980700,11.594980712890624,0.0786590576171875,0.8244781494140625,-0.320465087890625
1774159266696973800,11.614973876953124,0.1316070556640625,0.9105682373046875,-0.2653961181640625
1774159266716967200,11.63496728515625,0.0587005615234375,0.929718017578125,-0.2548828125
1774159266736960300,11.654960205078124,0.1563873291015625,0.9010162353515625,-0.26324462890625
1774159266756953000,11.674953125,0.1168060302734375,0.90277099609375,-0.276611328125
1774159266776947000,11.694947021484374,0.1938629150390625,0.9002532958984375,-0.299468994140625
1774159266796940000,11.71493994140625,0.1558380126953125,0.917510986328125,-0.3329620361328125
1774159266816933000,11.73493310546875,0.17108154296875,0.905975341796875,-0.2679901123046875
1774159266836926200,11.75492626953125,0.1485137939453125,0.9474639892578125,-0.261993408203125
1774159266856919000,11.7749189453125,0.1018218994140625,0.9892730712890625,-0.25506591796875
1774159266876912000,11.794912109375,0.1586151123046875,0.9271240234375,-0.2664947509765625
1774159266896905200,11.8149052734375,0.13970947265625,0.8977203369140625,-0.2949981689453125
1774159266916898000,11.83489794921875,0.163299560546875,0.9617919921875,-0.3130340576171875
1774159266936891100,11.85489111328125,0.116851806640625,1.10443115234375,-0.3682708740234375
1774159266956885000,11.874885009765626,0.1486358642578125,1.1485748291015625,-0.3248138427734375
1774159266976878000,11.894878173828126,0.07525634765625,1.0778961181640625,-0.28131103515625
1774159266996871200,11.91487109375,0.0505828857421875,1.1714019775390625,-0.318878173828125
1774159267016864000,11.934864013671875,0.0969390869140625,1.18145751953125,-0.3582305908203125
1774159267036857000,11.954857177734375,0.112579345703125,1.11578369140625,-0.3591156005859375
1774159267056850200,11.97485009765625,0.026702880859375,1.045806884765625,-0.3792877197265625
1774159267076843000,11.994843017578125,-0.006195068359375,0.97113037109375,-0.3851318359375
1774159267096836000,12.014836181640625,-0.01568603515625,0.9437713623046875,-0.2514495849609375
1774159267116830200,12.034830322265625,0.07061767578125,0.883880615234375,-0.14190673828125
1774159267136823300,12.0548232421875,-0.025604248046875,0.828369140625,-0.1466522216796875
1774159267156816100,12.074816162109375,-0.1207427978515625,0.8482666015625,-0.2639617919921875
1774159267176809000,12.09480908203125,-0.1569976806640625,0.9000244140625,-0.2917327880859375
1774159267196802000,12.114802001953125,-0.074676513671875,0.9464111328125,-0.3009185791015625
1774159267216795100,12.134795166015625,-0.0266571044921875,0.9513092041015625,-0.28521728515625
1774159267236788000,12.1547880859375,-0.005615234375,0.9724884033203125,-0.2944793701171875
1774159267256781000,12.174781005859375,0.0780029296875,1.0308380126953125,-0.304046630859375
1774159267276775200,12.194775146484375,0.0678863525390625,1.0250244140625,-0.259613037109375
1774159267296768300,12.214768310546875,0.0618438720703125,0.9737701416015625,-0.2180633544921875
1774159267316761000,12.234760986328125,0.078125,0.91424560546875,-0.28399658203125
1774159267336754200,12.254754150390625,0.0367279052734375,0.8818817138671875,-0.35986328125
1774159267356747300,12.274747314453125,0.064453125,0.871063232421875,-0.2144622802734375
1774159267376740000,12.294739990234374,0.0932464599609375,0.952301025390625,-0.25152587890625
1774159267396733000,12.31473291015625,0.0036163330078125,0.8897552490234375,-0.2476654052734375
1774159267416726000,12.33472607421875,0.0255584716796875,0.9229736328125,-0.1882781982421875
1774159267436720000,12.35472021484375,0.07293701171875,0.9577484130859375,-0.1644134521484375
1774159267456713200,12.374713134765624,0.0849151611328125,0.9528656005859375,-0.2046356201171875
1774159267476706000,12.3947060546875,0.10455322265625,0.945831298828125,-0.2497711181640625
1774159267496699100,12.41469921875,0.1597137451171875,0.9081573486328125,-0.3126678466796875
1774159267516692200,12.434692138671876,0.1566619873046875,0.88751220703125,-0.3217926025390625
1774159267536685300,12.454685302734376,0.2111968994140625,0.87554931640625,-0.364044189453125
1774159267556678100,12.47467822265625,0.2403411865234375,0.7624053955078125,-0.1956024169921875
1774159267576671200,12.494671142578126,0.2144317626953125,0.964996337890625,-0.0274810791015625
1774159267596665000,12.5146650390625,0.1131439208984375,0.969268798828125,-0.199371337890625
1774159267616658200,12.534658203125,0.1181488037109375,0.9488372802734375,-0.1445159912109375
1774159267636651000,12.554651123046876,0.1125030517578125,0.904541015625,-0.168670654296875
1774159267656644000,12.57464404296875,0.1571807861328125,0.8764801025390625,-0.220245361328125
1774159267676637200,12.59463720703125,0.26751708984375,0.899658203125,-0.2902679443359375
1774159267696630000,12.614630126953125,0.31939697265625,0.99932861328125,-0.2787933349609375
1774159267716622600,12.63462255859375,0.2079315185546875,1.0680389404296875,-0.24957275390625
1774159267736616700,12.65461669921875,0.20880126953125,1.118499755859375,-0.24920654296875
1774159267756609800,12.67460986328125,0.1894073486328125,1.01263427734375,-0.1145477294921875
1774159267776602600,12.6946025390625,0.08221435546875,1.052398681640625,-0.1138916015625
1774159267796595700,12.714595703125,0.2851104736328125,1.06280517578125,-0.0364532470703125
1774159267816588500,12.734588623046875,0.1936798095703125,1.1655120849609375,-0.147125244140625
1774159267836581600,12.75458154296875,0.2305908203125,1.22589111328125,-0.2454071044921875
1774159267856574700,12.77457470703125,0.251617431640625,1.2540435791015625,-0.2725830078125
1774159267876567600,12.794567626953125,0.097503662109375,1.2264251708984375,-0.2788543701171875
1774159267896561700,12.814561767578125,-0.089569091796875,1.231781005859375,-0.26678466796875
1774159267916554800,12.8345546875,-0.2644195556640625,1.1584625244140625,-0.2734375
1774159267936547800,12.8545478515625,-0.1204681396484375,0.9937744140625,-0.3208160400390625
1774159267956540700,12.874540771484375,-0.095977783203125,0.830963134765625,-0.37640380859375
1774159267976533800,12.89453369140625,-0.135162353515625,0.658935546875,-0.4029541015625
1774159267996526600,12.914526611328125,-0.2076568603515625,0.5505218505859375,-0.4216156005859375
1774159268016519700,12.934519775390624,-0.2178497314453125,0.5516510009765625,-0.4834136962890625
1774159268036513800,12.954513671875,-0.1443634033203125,0.6836700439453125,-0.532623291015625
1774159268056506600,12.974506591796874,-0.02484130859375,0.858245849609375,-0.38720703125
1774159268076499700,12.994499755859374,-0.0355682373046875,1.0203857421875,-0.2109222412109375
1774159268096492800,13.014492919921874,-0.1436004638671875,1.0909576416015625,-0.1451873779296875
1774159268116485600,13.034485595703124,-0.1444244384765625,1.0371246337890625,-0.1820068359375
1774159268136478700,13.054478759765624,-0.1195831298828125,0.974639892578125,-0.26983642578125
1774159268156471800,13.074471923828124,-0.04010009765625,0.933624267578125,-0.2779541015625
1774159268176465700,13.094465576171874,0.0175933837890625,0.895111083984375,-0.2967529296875
1774159268196458800,13.114458740234374,0.00360107421875,0.8574066162109375,-0.3205718994140625
1774159268216451600,13.13445166015625,-0.00201416015625,0.815216064453125,-0.336273193359375
1774159268236444700,13.154444580078126,0.0696258544921875,0.818206787109375,-0.3242645263671875
1774159268256437800,13.174437744140626,0.0945281982421875,0.8357696533203125,-0.2814483642578125
1774159268276430600,13.1944306640625,-0.0287017822265625,0.850738525390625,-0.24505615234375
1774159268296423700,13.214423583984376,-0.0986480712890625,0.830078125,-0.20037841796875
1774159268316417800,13.234417724609376,-0.0390777587890625,0.8101348876953125,-0.171112060546875
1774159268336411000,13.254410888671876,-0.0204925537109375,0.8024749755859375,-0.1866455078125
1774159268356403700,13.27440380859375,-0.156768798828125,0.8031768798828125,-0.2205047607421875
1774159268376396500,13.294396484375,0.0096588134765625,0.8191375732421875,-0.2269287109375
1774159268396389600,13.3143896484375,-0.1527862548828125,0.826416015625,-0.1950225830078125
1774159268416382700,13.3343828125,-0.2231292724609375,0.86505126953125,-0.172760009765625
1774159268436375600,13.35437548828125,-0.13360595703125,0.9541473388671875,-0.1552734375
1774159268456369700,13.37436962890625,-0.0816192626953125,1.0404510498046875,-0.1135711669921875
1774159268476362800,13.39436279296875,-0.0304718017578125,1.1442413330078125,-0.04339599609375
1774159268496355800,13.41435595703125,-0.176025390625,1.1923065185546875,0.001556396484375
1774159268516348700,13.4343486328125,-0.1954193115234375,1.2344818115234375,0.0484771728515625
1774159268536341800,13.454341796875,-0.0797119140625,1.31280517578125,0.070098876953125
1774159268556334800,13.4743349609375,0.017578125,1.4116973876953125,0.0565032958984375
1774159268576327700,13.49432763671875,0.0601043701171875,1.4015655517578125,0.010223388671875
1774159268596321500,13.514321533203125,-0.0477447509765625,1.35736083984375,-0.0629119873046875
1774159268616314600,13.534314697265625,-0.1988983154296875,1.34625244140625,-0.18994140625
1774159268636307700,13.5543076171875,-0.20892333984375,1.3212738037109375,-0.2418365478515625
1774159268656300800,13.57430078125,-0.2978057861328125,1.2675933837890625,-0.1860809326171875
1774159268676293600,13.594293701171875,-0.282073974609375,1.218353271484375,-0.1159515380859375
1774159268696286700,13.61428662109375,-0.21185302734375,1.0840606689453125,-0.11712646484375
1774159268716280000,13.634280029296875,-0.129180908203125,0.951385498046875,-0.1319122314453125
1774159268736274000,13.65427392578125,-0.1544952392578125,0.7989959716796875,-0.1280517578125
1774159268756266800,13.674266845703125,-0.2343597412109375,0.6240081787109375,-0.13275146484375
1774159268776259800,13.694259765625,-0.2540130615234375,0.5218048095703125,-0.114288330078125
1774159268796253000,13.7142529296875,-0.3244476318359375,0.5328826904296875,-0.0547027587890625
1774159268816246000,13.73424609375,-0.381378173828125,0.6134185791015625,0.0144500732421875
1774159268836238800,13.75423876953125,-0.3502197265625,0.720611572265625,0.042724609375
1774159268856232000,13.77423193359375,-0.2203369140625,0.867645263671875,0.0198211669921875
1774159268876226000,13.79422607421875,-0.0755157470703125,1.054901123046875,-0.04888916015625
1774159268896219100,13.81421923828125,-0.1013946533203125,1.1741180419921875,-0.0802001953125
1774159268916212000,13.8342119140625,-0.2131500244140625,1.266937255859375,-0.07073974609375
1774159268936204800,13.854204833984374,-0.1489105224609375,1.17938232421875,-0.1065521240234375
1774159268956198000,13.874197998046874,0.00732421875,0.991607666015625,-0.1771240234375
1774159268976191000,13.89419091796875,-0.0514984130859375,0.8764190673828125,-0.2171173095703125
1774159268996185000,13.91418505859375,-0.20721435546875,0.83740234375,-0.1916961669921875
1774159269016178000,13.934177978515624,-0.174713134765625,0.7791748046875,-0.1880645751953125
1774159269036171000,13.9541708984375,-0.0521240234375,0.7121429443359375,-0.250701904296875
1774159269056164000,13.9741640625,-0.0446014404296875,0.673004150390625,-0.285308837890625
1774159269076157000,13.994156982421876,-0.0677490234375,0.6690216064453125,-0.2685546875
1774159269096150000,14.01414990234375,-0.1028289794921875,0.754241943359375,-0.2352447509765625
1774159269116143900,14.034143798828126,-0.08782958984375,0.88787841796875,-0.2029571533203125
1774159269136137000,14.054136962890626,0.0335235595703125,1.04034423828125,-0.1086883544921875
1774159269156129800,14.0741298828125,0.13189697265625,1.164794921875,-0.0356292724609375
1774159269176123000,14.094122802734375,-0.0023956298828125,1.1226043701171875,-0.0625152587890625
1774159269196116000,14.114115966796875,0.0268402099609375,1.1190643310546875,-0.1329193115234375
1774159269216109000,14.134109130859375,-0.0376739501953125,1.116180419921875,-0.1451568603515625
1774159269236102000,14.154101806640625,0.0101470947265625,1.110198974609375,-0.077362060546875
1774159269256096000,14.174095947265625,0.036224365234375,1.123321533203125,-0.0565032958984375
1774159269276088800,14.1940888671875,0.1243743896484375,1.166656494140625,-0.07330322265625
1774159269296082000,14.21408203125,0.0579833984375,1.2578277587890625,-0.094024658203125
1774159269316074800,14.23407470703125,-0.0886383056640625,1.4578399658203125,-0.114288330078125
1774159269336067800,14.25406787109375,-0.0865936279296875,1.637664794921875,-0.1946563720703125
1774159269356061000,14.27406103515625,-0.2395477294921875,1.6244049072265625,-0.2471771240234375
1774159269376055000,14.294054931640625,-0.2467041015625,1.246368408203125,-0.295928955078125
1774159269396048100,14.314048095703125,-0.28094482421875,0.881317138671875,-0.271270751953125
1774159269416041000,14.334041015625,-0.3160247802734375,0.5471649169921875,-0.225921630859375
1774159269436034000,14.354033935546875,-0.3016204833984375,0.372833251953125,-0.23870849609375
1774159269456027100,14.374027099609375,-0.3797149658203125,0.55950927734375,-0.2888336181640625
1774159269476020000,14.39402001953125,-0.40716552734375,0.93408203125,-0.32635498046875
1774159269496012800,14.4140126953125,-0.1514739990234375,1.1020965576171875,-0.322540283203125
1774159269516007000,14.4340068359375,0.016815185546875,1.1436004638671875,-0.2656707763671875
1774159269536000000,14.454,0.0148162841796875,1.0590362548828125,-0.17388916015625
1774159269555992800,14.473992919921875,-0.0272674560546875,1.01800537109375,-0.0880889892578125
1774159269575986000,14.49398583984375,0.1015472412109375,0.987152099609375,-0.0506134033203125
1774159269595979000,14.51397900390625,-0.026397705078125,0.896697998046875,-0.038604736328125
1774159269615972000,14.53397216796875,-0.40411376953125,0.831695556640625,0.0240478515625
1774159269635966000,14.553966064453125,-0.2407684326171875,0.772613525390625,0.0164794921875
1774159269655958800,14.573958740234374,-0.1588287353515625,0.7560272216796875,-0.06036376953125
1774159269675951900,14.593951904296874,-0.0587921142578125,0.7725982666015625,-0.1081085205078125
1774159269695945000,14.613945068359374,-0.0639190673828125,0.857177734375,-0.066558837890625
1774159269715937800,14.633937744140624,-0.1044769287109375,0.8957366943359375,-0.109619140625
1774159269735931100,14.65393115234375,-0.0562591552734375,0.9036407470703125,-0.192047119140625
1774159269755925200,14.67392529296875,0.0500335693359375,0.9155426025390625,-0.302886962890625
1774159269775918000,14.69391796875,0.0747833251953125,0.93133544921875,-0.357635498046875
1774159269795911200,14.7139111328125,0.0902252197265625,0.97021484375,-0.3293304443359375
1774159269815904300,14.733904296875,0.1370697021484375,1.0133819580078125,-0.27606201171875
1774159269835897000,14.75389697265625,-0.020294189453125,0.986297607421875,-0.2598419189453125
1774159269855890000,14.773889892578126,-0.153076171875,0.9027862548828125,-0.336578369140625
1774159269875884000,14.793884033203126,-0.194854736328125,0.8362579345703125,-0.4458160400390625
1774159269895877000,14.813877197265626,-0.005615234375,0.8495635986328125,-0.488250732421875
1774159269915870200,14.8338701171875,0.191558837890625,1.1525421142578125,-0.4285736083984375
1774159269935863000,14.853863037109376,0.0595703125,1.313446044921875,-0.322967529296875
1774159269955856100,14.873856201171876,-0.1910858154296875,1.2067413330078125,-0.21954345703125
1774159269975849200,14.89384912109375,-0.2498626708984375,1.1381072998046875,-0.204071044921875
1774159269995843000,14.913843017578126,-0.23651123046875,1.02764892578125,-0.23724365234375
1774159270015836000,14.9338359375,-0.170318603515625,0.8618011474609375,-0.2698974609375
1774159270035829000,14.9538291015625,-0.2243499755859375,0.7156829833984375,-0.26763916015625
1774159270055822000,14.973822021484375,-0.2423858642578125,0.673736572265625,-0.226318359375
1774159270075815000,14.99381494140625,-0.223052978515625,0.716583251953125,-0.1628570556640625
1774159270095808000,15.01380810546875,-0.2042083740234375,0.8289031982421875,-0.1195831298828125
1774159270115802000,15.033802001953125,-0.1777191162109375,0.98492431640625,-0.1588592529296875
1774159270135795200,15.053795166015625,-0.18585205078125,1.065032958984375,-0.1696624755859375
1774159270155788300,15.073788330078125,-0.1805419921875,1.0188140869140625,-0.184173583984375
1774159270175781000,15.093781005859375,-0.130706787109375,0.9366912841796875,-0.192047119140625
1774159270195774000,15.11377392578125,-0.095855712890625,0.8765106201171875,-0.2199859619140625
1774159270215767000,15.13376708984375,-0.049957275390625,0.8888702392578125,-0.194366455078125
1774159270235761200,15.15376123046875,-0.0829010009765625,0.88507080078125,-0.1856536865234375
1774159270255754000,15.17375390625,-0.127044677734375,0.918792724609375,-0.21630859375
1774159270275747000,15.1937470703125,-0.112091064453125,1.0005645751953125,-0.2493133544921875
1774159270295740200,15.213740234375,-0.0521392822265625,1.0760040283203125,-0.243438720703125
1774159270315733200,15.233733154296875,0.106842041015625,1.00628662109375,-0.3015594482421875
1774159270335726000,15.25372607421875,0.1226043701171875,0.967620849609375,-0.3752288818359375
1774159270355720000,15.273719970703125,-0.052001953125,0.943206787109375,-0.287750244140625
1774159270375713000,15.293713134765625,-0.110443115234375,0.912384033203125,-0.1358795166015625
1774159270395706000,15.3137060546875,-0.089385986328125,0.8500213623046875,-0.011871337890625
1774159270415699000,15.333698974609375,-0.062347412109375,0.8282012939453125,0.0217132568359375
1774159270435692000,15.353692138671875,-0.040069580078125,0.8631134033203125,-0.01641845703125
1774159270455685000,15.37368505859375,-0.071075439453125,0.9442291259765625,-0.0223846435546875
1774159270475679200,15.39367919921875,-0.09173583984375,1.03924560546875,-0.0074615478515625
1774159270495672000,15.413672119140625,-0.03668212890625,1.1424102783203125,-0.0174713134765625
1774159270515665200,15.4336650390625,0.0443115234375,1.275665283203125,-0.0384368896484375
1774159270535658200,15.453658203125,-0.0834197998046875,1.46258544921875,-0.1212615966796875
1774159270555651000,15.473651123046874,-0.094970703125,1.561126708984375,-0.2385101318359375
1774159270575644000,15.493643798828124,-0.1320343017578125,1.4533233642578125,-0.3115081787109375
1774159270595638000,15.513637939453124,-0.348846435546875,1.2823028564453125,-0.325042724609375
1774159270615631000,15.533631103515624,-0.3307342529296875,0.9998626708984375,-0.3062744140625
1774159270635624200,15.553624267578124,-0.327484130859375,0.703277587890625,-0.233734130859375
1774159270655617000,15.573616943359376,-0.3455657958984375,0.532073974609375,-0.249481201171875
1774159270675610000,15.593610107421876,-0.3927001953125,0.612945556640625,-0.2886505126953125
1774159270695603200,15.613603271484376,-0.3996124267578125,0.8741912841796875,-0.3269500732421875
1774159270715597000,15.63359716796875,-0.333160400390625,1.1113739013671875,-0.378692626953125
1774159270735590100,15.653590087890626,-0.181488037109375,1.206695556640625,-0.359405517578125
1774159270755583200,15.673583251953126,-0.0475921630859375,1.1375274658203125,-0.253997802734375
1774159270775576300,15.693576416015626,0.168548583984375,1.028656005859375,-0.0974578857421875
1774159270795569400,15.7135693359375,0.00274658203125,0.973876953125,-0.0953369140625
1774159270815563500,15.7335634765625,-0.146942138671875,0.8845062255859375,-0.2278594970703125
1774159270835556400,15.753556396484376,-0.0216064453125,0.8170623779296875,-0.2348785400390625
1774159270855549400,15.773549560546876,-0.0609130859375,0.790802001953125,-0.163482666015625
1774159270875542500,15.79354248046875,-0.009521484375,0.8293609619140625,-0.0634307861328125
1774159270895535000,15.81353515625,0.01806640625,0.806671142578125,-0.020355224609375
1774159270915528200,15.833528076171875,-0.0620269775390625,0.7549285888671875,-0.0142669677734375
1774159270935522300,15.853522216796875,-0.12109375,0.7229766845703125,-0.0508880615234375
1774159270955515400,15.873515380859375,-0.022216796875,0.7642822265625,-0.1323699951171875
1774159270975508200,15.89350830078125,0.071868896484375,0.8291778564453125,-0.1551666259765625
1774159270995501300,15.913501220703125,0.1454620361328125,0.84002685546875,-0.13470458984375
1774159271015494400,15.933494384765625,-0.0395660400390625,0.846435546875,-0.138214111328125
1774159271035487500,15.953487548828125,-0.1517333984375,0.85467529296875,-0.2818603515625
1774159271055481300,15.9734814453125,-0.092620849609375,0.9676361083984375,-0.407867431640625
1774159271075474200,15.99347412109375,0.034149169921875,1.1518096923828125,-0.47137451171875
1774159271095467300,16.01346728515625,0.025543212890625,1.3282928466796875,-0.39984130859375
1774159271115460400,16.03346044921875,-0.2096405029296875,1.25286865234375,-0.195526123046875
1774159271135453200,16.053453125,-0.2469940185546875,1.0554656982421875,-0.0765380859375
1774159271155447300,16.073447265625,-0.194091796875,0.91412353515625,-0.0282135009765625
1774159271175440400,16.0934404296875,-0.1556243896484375,0.9493865966796875,-0.0200653076171875
1774159271195433500,16.11343359375,-0.2027435302734375,1.154632568359375,-0.0739898681640625
1774159271215426300,16.13342626953125,-0.263519287109375,1.3770751953125,-0.182281494140625
1774159271235419400,16.15341943359375,-0.3173828125,1.3246917724609375,-0.209503173828125
1774159271255412200,16.173412109375,-0.23321533203125,1.101104736328125,-0.2037200927734375
1774159271275406300,16.19340625,-0.1434478759765625,0.9544525146484375,-0.21649169921875
1774159271295399400,16.2133994140625,-0.0938262939453125,0.8510894775390625,-0.217437744140625
1774159271315392300,16.233392333984376,-0.074310302734375,0.7950592041015625,-0.1470947265625
1774159271335385300,16.25338525390625,-0.0826873779296875,0.7954254150390625,-0.0516815185546875
1774159271355378400,16.27337841796875,-0.1356048583984375,0.7953643798828125,-0.003173828125
1774159271375372300,16.293372314453126,-0.1631927490234375,0.7799530029296875,-0.01318359375
1774159271395365000,16.313365234375,-0.1449737548828125,0.776611328125,-0.05133056640625
1774159271415358200,16.333358154296874,-0.1352386474609375,0.804229736328125,-0.0841217041015625
1774159271435351300,16.353351318359376,-0.1140899658203125,0.8421173095703125,-0.107391357421875
1774159271455344400,16.373344482421874,-0.0977325439453125,0.87799072265625,-0.105926513671875
1774159271475337200,16.393337158203124,-0.087127685546875,0.919952392578125,-0.05731201171875
1774159271495331300,16.413331298828126,-0.087677001953125,0.950408935546875,0.002288818359375
1774159271515324400,16.433324462890624,-0.08087158203125,0.9772186279296875,0.0078277587890625
1774159271535317500,16.4533173828125,-0.07965087890625,1.0237884521484375,-0.026641845703125
1774159271555310300,16.473310302734376,-0.0725250244140625,1.0531768798828125,-0.043670654296875
1774159271575303400,16.493303466796874,-0.0468597412109375,1.0152435302734375,-0.0203094482421875
1774159271595297300,16.51329736328125,-0.0689239501953125,0.969573974609375,-0.000518798828125
1774159271615290400,16.533290283203126,-0.0996551513671875,0.9580230712890625,-0.0068359375
1774159271635283200,16.553283203125,-0.08953857421875,0.9932098388671875,-0.0145111083984375
1774159271655276300,16.5732763671875,-0.0184783935546875,1.05084228515625,-0.0330657958984375
1774159271675269400,16.593269287109376,0.0823516845703125,1.194183349609375,-0.06170654296875
1774159271695262500,16.613262451171874,0.0731201171875,1.3274383544921875,-0.1544189453125
1774159271715256300,16.63325634765625,-0.023468017578125,1.433837890625,-0.2513427734375
1774159271735248600,16.65324853515625,-0.1114654541015625,1.4644927978515625,-0.23828125
1774159271755241700,16.67324169921875,-0.2258453369140625,1.31591796875,-0.1348724365234375
1774159271775234600,16.693234619140625,-0.3179779052734375,1.25115966796875,-0.105133056640625
1774159271795227600,16.7132275390625,-0.28546142578125,1.090179443359375,-0.1523590087890625
1774159271815221500,16.733221435546874,-0.279937744140625,0.83831787109375,-0.215118408203125
1774159271835214600,16.753214599609375,-0.2615203857421875,0.6359405517578125,-0.2872467041015625
1774159271855207700,16.773207763671873,-0.2370147705078125,0.631866455078125,-0.3592071533203125
1774159271875200500,16.793200439453123,-0.271209716796875,0.8184051513671875,-0.374664306640625
1774159271895193600,16.813193603515625,-0.230560302734375,0.996002197265625,-0.30889892578125
1774159271915187700,16.833187744140623,-0.0993804931640625,1.0823974609375,-0.1746368408203125
1774159271935180500,16.8531806640625,0.1038818359375,1.0829620361328125,0.01129150390625
1774159271955173400,16.87317333984375,0.0340728759765625,0.9979705810546875,0.0658721923828125
1774159271975166500,16.89316650390625,-0.027587890625,0.9346466064453125,-0.0492401123046875
1774159271995159600,16.91315966796875,-0.0497894287109375,0.8909454345703125,-0.1281280517578125
1774159272015152600,16.933152587890625,-0.0598907470703125,0.87158203125,-0.11669921875
1774159272035146500,16.953146484375,-0.030364990234375,0.85333251953125,-0.1089630126953125
1774159272055139600,16.9731396484375,0.0488739013671875,0.86846923828125,-0.0876922607421875
1774159272075132700,16.993132568359375,0.0139923095703125,0.880096435546875,-0.09625244140625
1774159272095125800,17.013125732421877,0.0323333740234375,0.8602752685546875,-0.1130828857421875
1774159272115118600,17.03311865234375,0.0773468017578125,0.8446044921875,-0.1357269287109375
1774159272135112400,17.053112548828125,0.05426025390625,0.8682708740234375,-0.1708831787109375
1774159272155105500,17.07310546875,0.1196441650390625,0.863006591796875,-0.1873779296875
1774159272175098600,17.0930986328125,0.1837615966796875,0.8748626708984375,-0.159149169921875
1774159272195091500,17.113091552734375,0.0500640869140625,0.8693084716796875,-0.1426544189453125
1774159272215084500,17.13308447265625,0.0023345947265625,0.8490142822265625,-0.166534423828125
1774159272235078700,17.15307861328125,0.1030120849609375,0.8595123291015625,-0.1772613525390625
1774159272255071700,17.17307177734375,0.090057373046875,0.887908935546875,-0.222686767578125
1774159272275064600,17.193064697265626,-0.0325775146484375,0.9281463623046875,-0.320648193359375
1774159272295057400,17.213057373046876,0.0231170654296875,1.067535400390625,-0.374908447265625
1774159272315050500,17.233050537109374,0.1572113037109375,1.305755615234375,-0.2825927734375
1774159272335043600,17.253043701171876,-0.017333984375,1.480438232421875,-0.1726531982421875
1774159272355037700,17.27303759765625,-0.23236083984375,1.3921356201171875,-0.0885162353515625
1774159272375030500,17.293030517578124,-0.226043701171875,1.1636505126953125,-0.0651092529296875
1774159272395023600,17.313023681640626,-0.1237335205078125,0.96917724609375,-0.1050872802734375
1774159272415016700,17.3330166015625,-0.0701141357421875,0.819366455078125,-0.1736907958984375
1774159272435009500,17.353009521484374,-0.19140625,0.8010711669921875,-0.1619873046875
1774159272455003400,17.37300341796875,-0.266021728515625,0.90277099609375,-0.0553131103515625
1774159272474996500,17.39299658203125,-0.26617431640625,1.034271240234375,0.0016632080078125
1774159272494989600,17.412989501953124,-0.2173004150390625,1.137237548828125,-0.0431976318359375
1774159272514982400,17.432982421875,-0.1519012451171875,1.089324951171875,-0.1860809326171875
1774159272534975500,17.4529755859375,-0.1128387451171875,0.966644287109375,-0.3030242919921875
1774159272554969600,17.472969482421874,-0.1722259521484375,0.87640380859375,-0.308013916015625
1774159272574962700,17.492962646484376,-0.117767333984375,0.832763671875,-0.2801513671875
1774159272594955800,17.512955810546874,-0.0630645751953125,0.8188934326171875,-0.2172698974609375
1774159272614948600,17.532948486328124,-0.08526611328125,0.819122314453125,-0.1544647216796875
1774159272634941700,17.552941650390625,-0.089874267578125,0.8295745849609375,-0.105072021484375
1774159272654935600,17.572935546875,-0.0566558837890625,0.85302734375,-0.07318115234375
1774159272674928600,17.5929287109375,-0.038299560546875,0.8785552978515625,-0.052947998046875
1774159272694921500,17.61292138671875,-0.0378570556640625,0.907440185546875,-0.025390625
1774159272714914600,17.63291455078125,-0.03863525390625,0.91009521484375,-0.022796630859375
1774159272734908200,17.652908203125,-0.04913330078125,0.910247802734375,-0.05328369140625
1774159272754902000,17.672902099609374,-0.0468292236328125,0.925384521484375,-0.0728607177734375
1774159272774895000,17.69289501953125,-0.04638671875,0.9663543701171875,-0.0701141357421875
1774159272794888000,17.712887939453125,-0.0458526611328125,0.98651123046875,-0.0432586669921875
1774159272814881000,17.732881103515624,-0.0530548095703125,1.0006561279296875,-0.0089111328125
1774159272834874000,17.7528740234375,-0.042724609375,1.0238189697265625,-0.002655029296875
1774159272854867000,17.772866943359375,-0.043182373046875,1.0406646728515625,-0.0411224365234375
1774159272874861000,17.792861083984373,-0.090118408203125,1.0380096435546875,-0.090484619140625
1774159272894854100,17.812854248046875,-0.118316650390625,1.109283447265625,-0.1111297607421875
1774159272914847200,17.83284716796875,-0.0822906494140625,1.2887420654296875,-0.1296844482421875
1774159272934840000,17.852840087890623,-0.085601806640625,1.4427642822265625,-0.21051025390625
1774159272954833200,17.872833251953125,-0.1700439453125,1.4570159912109375,-0.3390045166015625
1774159272974827000,17.892826904296875,-0.314178466796875,1.4754180908203125,-0.4281005859375
1774159272994820000,17.912820068359373,-0.3195953369140625,1.255828857421875,-0.389251708984375
1774159273014813200,17.932813232421875,-0.374786376953125,0.948486328125,-0.2802276611328125
1774159273034806000,17.952805908203125,-0.3269500732421875,0.641693115234375,-0.236907958984375
1774159273054799000,17.972799072265627,-0.264251708984375,0.5958404541015625,-0.3276519775390625
1774159273074793200,17.992793212890625,-0.2656402587890625,0.8283233642578125,-0.3510284423828125
1774159273094786000,18.0127861328125,-0.2008209228515625,0.9647369384765625,-0.297088623046875
1774159273114779000,18.03277880859375,-0.1799468994140625,1.1099700927734375,-0.160858154296875
1774159273134772000,18.05277197265625,-0.129180908203125,1.1416778564453125,-0.00970458984375
1774159273154765000,18.07276513671875,-0.0814208984375,1.0386962890625,0.037506103515625
1774159273174759200,18.09275927734375,-0.0962677001953125,0.914947509765625,-0.0417327880859375
1774159273194752000,18.112751953125,-0.111358642578125,0.80853271484375,-0.1556854248046875
1774159273214745000,18.1327451171875,-0.087799072265625,0.7973175048828125,-0.1434173583984375
1774159273234738200,18.15273828125,-0.082275390625,0.825531005859375,-0.064605712890625
1774159273254731300,18.172731201171874,-0.10101318359375,0.866180419921875,0.02825927734375
1774159273274724900,18.192724853515625,-0.0711517333984375,0.9401092529296875,0.0740814208984375
1774159273294718000,18.212718017578126,-0.017364501953125,0.9416656494140625,0.038421630859375
1774159273314711000,18.2327109375,-0.029876708984375,0.8848876953125,-0.12322998046875
1774159273334704000,18.2527041015625,-0.020294189453125,0.845703125,-0.2169952392578125
1774159273354697000,18.272697021484376,0.047027587890625,0.8495635986328125,-0.2251434326171875
1774159273374691000,18.292691162109374,0.049407958984375,0.84442138671875,-0.1835479736328125
1774159273394684200,18.31268408203125,0.132049560546875,0.826904296875,-0.15911865234375
1774159273414677200,18.33267724609375,0.1087799072265625,0.8534393310546875,-0.10992431640625
1774159273434670000,18.352670166015624,-0.029632568359375,0.852691650390625,-0.11859130859375
1774159273454663000,18.372662841796874,-0.1313934326171875,0.87786865234375,-0.1816253662109375
1774159273474657000,18.392656982421876,-0.142974853515625,0.951080322265625,-0.2706756591796875
1774159273494650000,18.412650146484374,0.0326690673828125,1.112579345703125,-0.2892303466796875
1774159273514643200,18.432643310546876,0.0846405029296875,1.364288330078125,-0.122528076171875
1774159273534636000,18.452635986328126,-0.3199005126953125,1.4110870361328125,-0.0252532958984375
1774159273554629000,18.472629150390624,-0.3282928466796875,1.28704833984375,-0.0321807861328125
1774159273574623200,18.492623291015626,-0.3141937255859375,1.1732940673828125,-0.0591888427734375
1774159273594616000,18.512615966796876,-0.2161102294921875,1.0067138671875,-0.107879638671875
1774159273614609000,18.53260888671875,-0.1694488525390625,0.800262451171875,-0.1293792724609375
1774159273634602000,18.55260205078125,-0.3490753173828125,0.6807861328125,-0.0912017822265625
1774159273654595000,18.572594970703125,-0.42218017578125,0.6785125732421875,-0.056182861328125
1774159273674589200,18.592589111328124,-0.3650360107421875,0.82916259765625,-0.0985870361328125
1774159273694582000,18.61258203125,-0.2896881103515625,1.1545257568359375,-0.2377166748046875
1774159273714575000,18.6325751953125,-0.25628662109375,1.35919189453125,-0.3893890380859375
1774159273734567400,18.6525673828125,-0.2531585693359375,1.2657012939453125,-0.4616546630859375
1774159273754560500,18.672560546875,-0.12628173828125,1.035858154296875,-0.449920654296875
1774159273774554400,18.692554443359374,-0.078521728515625,0.9731292724609375,-0.376953125
1774159273794547500,18.71254736328125,-0.076568603515625,0.9481353759765625,-0.2281646728515625
1774159273814540300,18.732540283203125,-0.0779571533203125,0.8839569091796875,-0.109619140625
1774159273834533400,18.752533447265623,-0.0887298583984375,0.8237152099609375,-0.045440673828125
1774159273854526500,18.7725263671875,-0.1360321044921875,0.758697509765625,-0.0049285888671875
1774159273874520600,18.7925205078125,-0.1625518798828125,0.745361328125,0.0072479248046875
1774159273894513400,18.812513427734373,-0.1409149169921875,0.76239013671875,-0.0030059814453125
1774159273914506500,18.832506591796875,-0.09979248046875,0.7958526611328125,-0.030853271484375
1774159273934499600,18.85249951171875,-0.0439453125,0.8412017822265625,-0.0457763671875
1774159273954492700,18.87249267578125,-0.0168609619140625,0.8658599853515625,-0.015289306640625
1774159273974486300,18.892486328125,-0.05615234375,0.8931121826171875,0.024200439453125
1774159273994479400,18.912479248046875,-0.076904296875,0.9376068115234375,0.017791748046875
1774159274014472400,18.932472412109377,-0.058197021484375,0.9698028564453125,-0.0258636474609375
1774159274034465500,18.952465576171875,-0.0674896240234375,1.0068206787109375,-0.0628814697265625
1774159274054458400,18.972458251953125,-0.089385986328125,1.05291748046875,-0.10675048828125
1774159274074452500,18.992452392578127,-0.1061248779296875,1.1140289306640625,-0.0625
1774159274094445600,19.012445556640625,-0.0653228759765625,1.212158203125,0.0679931640625
1774159274114438700,19.032438720703126,0.046112060546875,1.3780364990234375,0.0716094970703125
1774159274134431500,19.052431396484376,0.177825927734375,1.486663818359375,-0.13372802734375
1774159274154424300,19.07242431640625,0.137359619140625,1.5599822998046875,-0.33740234375
1774159274174418400,19.09241845703125,-0.0490264892578125,1.461029052734375,-0.285980224609375
1774159274194411500,19.11241162109375,-0.22601318359375,1.1781463623046875,-0.1263275146484375
1774159274214404400,19.132404296875,-0.380523681640625,0.8668060302734375,-0.0559539794921875
1774159274234397400,19.1523974609375,-0.4447021484375,0.6039581298828125,-0.1233062744140625
1774159274254390500,19.172390625,-0.3668212890625,0.558837890625,-0.2142791748046875
1774159274274384400,19.19238427734375,-0.2909698486328125,0.6900482177734375,-0.3057098388671875
1774159274294377500,19.21237744140625,-0.3108062744140625,0.8906097412109375,-0.294158935546875
1774159274314370300,19.232370361328126,-0.2246551513671875,1.03936767578125,-0.2258758544921875
1774159274334363400,19.25236328125,-0.1200714111328125,1.1622161865234375,-0.1591644287109375
1774159274354357500,19.272357421875,-0.0855255126953125,1.138519287109375,-0.05841064453125
1774159274374350600,19.2923505859375,-0.04559326171875,1.0994415283203125,0.0434417724609375
1774159274394343400,19.312343505859374,-0.0169830322265625,1.093536376953125,0.0873565673828125
1774159274414336500,19.33233642578125,0.089508056640625,1.0576324462890625,0.0953521728515625
1774159274434329600,19.35232958984375,0.0919342041015625,0.942047119140625,0.080291748046875
1774159274454323500,19.372323486328124,0.037872314453125,0.8961029052734375,-0.0052642822265625
1774159274474316300,19.39231640625,-0.0744781494140625,0.8708648681640625,-0.04547119140625
1774159274494309400,19.412309326171876,-0.1375885009765625,0.8370361328125,-0.0965728759765625
1774159274514302500,19.432302490234374,-0.1164703369140625,0.7986297607421875,-0.1154632568359375
1774159274534295600,19.452295654296876,-0.050018310546875,0.77642822265625,-0.102874755859375
1774159274554289400,19.472289306640626,0.0151519775390625,0.807281494140625,-0.10650634765625
1774159274574282500,19.492282470703124,0.0447235107421875,0.8488922119140625,-0.154296875
1774159274594275600,19.512275634765626,0.1031646728515625,0.8948822021484375,-0.186553955078125
1774159274614268400,19.532268310546876,0.142913818359375,0.9696197509765625,-0.1120758056640625
1774159274634261200,19.55226123046875,0.1758575439453125,1.0593719482421875,-0.0009918212890625
1774159274654255400,19.57225537109375,0.14892578125,1.0415802001953125,-0.01373291015625
1774159274674248400,19.59224853515625,-0.0752410888671875,1.016998291015625,-0.2123260498046875
1774159274694241500,19.612241455078124,-0.0560302734375,1.0587005615234375,-0.2957000732421875
1774159274714234400,19.632234375,0.0224151611328125,1.1204681396484375,-0.2558746337890625
1774159274734229200,19.652229248046876,0.10357666015625,1.26397705078125,-0.1390533447265625
1774159274754222300,19.672222412109374,-0.0526275634765625,1.2951202392578125,-0.0384979248046875
1774159274774215400,19.69221533203125,-0.2444915771484375,1.228912353515625,-0.0633544921875
1774159274794208300,19.712208251953125,-0.14837646484375,1.04937744140625,-0.1103515625
1774159274814201300,19.732201416015624,-0.2141876220703125,0.961334228515625,-0.0791778564453125
1774159274834195500,19.752195556640626,-0.245513916015625,0.845855712890625,-0.028656005859375
1774159274854188500,19.7721884765625,-0.2333221435546875,0.7593536376953125,-0.0318756103515625
1774159274874181400,19.792181396484374,-0.1796112060546875,0.759552001953125,-0.09161376953125
1774159274894174500,19.812174560546875,-0.135162353515625,0.866363525390625,-0.1903228759765625
1774159274914168300,19.832168212890625,-0.1038665771484375,0.9875946044921875,-0.2915496826171875
1774159274934161400,19.852161376953124,-0.0001068115234375,1.0162506103515625,-0.3906097412109375
1774159274954154200,19.872154296875,-0.1028594970703125,1.0233001708984375,-0.39056396484375
1774159274974147300,19.892147216796875,-0.105194091796875,0.9979095458984375,-0.3286895751953125
1774159274994140400,19.912140380859373,-0.0815277099609375,0.9454345703125,-0.2544403076171875
1774159275014134500,19.932134521484375,-0.121307373046875,0.8714599609375,-0.23565673828125
1774159275034127400,19.95212744140625,-0.1242523193359375,0.822601318359375,-0.2303314208984375
1774159275054120200,19.9721201171875,-0.0708160400390625,0.8334197998046875,-0.207122802734375
1774159275074113300,19.99211328125,-0.027099609375,0.8383941650390625,-0.1882476806640625
1774159275094107400,20.012107421875,0.001678466796875,0.81866455078125,-0.1806488037109375
1774159275114100500,20.0321005859375,-0.0204315185546875,0.7944183349609375,-0.1619110107421875
1774159275134093300,20.05209326171875,-0.0072479248046875,0.75640869140625,-0.1565704345703125
1774159275154086400,20.07208642578125,0.0359039306640625,0.78179931640625,-0.1372528076171875
1774159275174079500,20.09207958984375,0.0404205322265625,0.862518310546875,-0.1230010986328125
1774159275194073300,20.1120732421875,-0.0197906494140625,0.9630279541015625,-0.1098480224609375
1774159275214066200,20.132066162109375,-0.0384674072265625,1.034271240234375,-0.08880615234375
1774159275234059300,20.152059326171877,-0.057098388671875,1.10089111328125,-0.0954742431640625
1774159275254052400,20.17205224609375,0.023590087890625,1.2068328857421875,-0.15655517578125
1774159275274046500,20.19204638671875,0.1155548095703125,1.354766845703125,-0.242767333984375
1774159275294039300,20.212039306640627,0.05987548828125,1.4705047607421875,-0.34619140625
1774159275314032400,20.232032470703125,-0.120513916015625,1.4459075927734375,-0.5440826416015625
1774159275334025500,20.252025390625,-0.6715850830078125,1.516845703125,-0.5424041748046875
1774159275354018600,20.2720185546875,-0.6240386962890625,1.1013031005859375,-0.4383087158203125
1774159275374012400,20.292012451171875,-0.49609375,0.7902374267578125,-0.3285369873046875
1774159275394005200,20.312005126953125,-0.210296630859375,0.651458740234375,-0.3104705810546875
1774159275413998300,20.331998291015626,-0.0112457275390625,0.746673583984375,-0.2628631591796875
1774159275433991400,20.351991455078124,-0.0393829345703125,0.8423004150390625,-0.1767730712890625
1774159275453985500,20.371985595703126,-0.1388092041015625,0.87451171875,-0.0556793212890625
1774159275473978400,20.391978271484376,-0.1551666259765625,0.8743133544921875,0.000457763671875
1774159275493971500,20.411971435546874,-0.091552734375,0.9216766357421875,0.0009613037109375
1774159275513964300,20.43196435546875,-0.0741119384765625,0.9676513671875,-0.09503173828125
1774159275533958400,20.45195849609375,-0.085418701171875,0.968292236328125,-0.2146759033203125
1774159275553951200,20.471951171875,-0.0836181640625,0.967041015625,-0.221160888671875
1774159275573944300,20.4919443359375,-0.0792694091796875,0.9582977294921875,-0.13275146484375
1774159275593937400,20.5119375,-0.0566864013671875,0.9331207275390625,-0.0773468017578125
1774159275613930500,20.531930419921874,-0.044586181640625,0.9171295166015625,-0.042236328125
1774159275633924600,20.551924560546876,-0.02691650390625,0.88812255859375,-0.041015625
1774159275653917400,20.57191748046875,-0.015838623046875,0.8457183837890625,-0.0842132568359375
1774159275673910300,20.59191015625,-0.021392822265625,0.8115386962890625,-0.1175537109375
1774159275693903400,20.6119033203125,-0.0639801025390625,0.7758331298828125,-0.1491546630859375
1774159275713897500,20.6318974609375,-0.0406494140625,0.790283203125,-0.139862060546875
1774159275733889000,20.651888916015626,-0.0633087158203125,0.8769683837890625,-0.1020355224609375
1774159275753882000,20.671882080078124,-0.076080322265625,1.001800537109375,-0.0702667236328125
1774159275773875200,20.691875244140626,-0.0664825439453125,1.1519317626953125,-0.03057861328125
1774159275793869300,20.711869384765624,-0.04180908203125,1.2435455322265625,-0.014434814453125
1774159275813862100,20.731862060546874,-0.0698699951171875,1.306182861328125,-0.0194854736328125
1774159275833855200,20.751855224609375,-0.089630126953125,1.3885345458984375,0.036468505859375
1774159275853848300,20.771848388671874,-0.14501953125,1.4205474853515625,0.09405517578125
1774159275873842200,20.79184228515625,-0.2799072265625,1.41949462890625,0.045562744140625
1774159275893835300,20.811835205078125,-0.4502716064453125,1.33050537109375,-0.0386962890625
1774159275913828000,20.831828125,-0.4003753662109375,0.9616546630859375,-0.043975830078125
1774159275933821200,20.8518212890625,-0.2779693603515625,0.6765594482421875,-0.050567626953125
1774159275953815300,20.871815185546875,-0.23004150390625,0.517730712890625,-0.01483154296875
1774159275973808400,20.891808349609374,-0.21319580078125,0.5788421630859375,-0.0282440185546875
1774159275993801200,20.91180126953125,-0.2280120849609375,0.8045196533203125,-0.0864410400390625
1774159276013794300,20.931794189453125,-0.2427215576171875,0.9266815185546875,-0.0970458984375
1774159276033788200,20.9517880859375,-0.24334716796875,0.997955322265625,-0.0870819091796875
1774159276053781200,20.97178125,-0.248992919921875,1.0589141845703125,-0.0661468505859375
1774159276073774000,20.991774169921875,-0.2185821533203125,1.1252593994140625,-0.0461578369140625
1774159276093767200,21.01176708984375,-0.121002197265625,1.1112213134765625,-0.0240936279296875
1774159276113761300,21.03176123046875,-0.0501861572265625,1.042327880859375,0.007232666015625
1774159276133754400,21.05175439453125,-0.0302886962890625,0.978759765625,0.039459228515625
1774159276153747200,21.071747314453123,-0.0591888427734375,0.95556640625,0.050201416015625
1774159276173740000,21.091739990234377,-0.05712890625,0.91070556640625,0.0320281982421875
1774159276193733000,21.111733154296875,-0.0533447265625,0.8521728515625,-0.010345458984375
1774159276213727200,21.131727294921873,-0.058319091796875,0.7599639892578125,-0.0535125732421875
1774159276233720300,21.15172021484375,-0.104217529296875,0.691375732421875,-0.0918121337890625
1774159276253713200,21.171713134765625,-0.1666107177734375,0.6363983154296875,-0.116729736328125
1774159276273706200,21.191706298828127,-0.120147705078125,0.6873321533203125,-0.1043243408203125
1774159276293700000,21.2117001953125,-0.070831298828125,0.81585693359375,-0.059539794921875
1774159276313693200,21.231693115234375,-0.161590576171875,0.98870849609375,-0.051910400390625
1774159276333686000,21.25168603515625,-0.169647216796875,1.1856842041015625,-0.11541748046875
1774159276353679000,21.27167919921875,-0.0811920166015625,1.2703704833984375,-0.1825408935546875
1774159276373673200,21.291673095703125,-0.0054931640625,1.32928466796875,-0.1484222412109375
1774159276393666300,21.311666259765627,-0.1083526611328125,1.4798431396484375,-0.098388671875
1774159276413659100,21.3316591796875,-0.074798583984375,1.622894287109375,-0.1226959228515625
1774159276433652200,21.35165234375,-0.1998291015625,1.5947113037109375,-0.1561431884765625
1774159276453646000,21.37164599609375,-0.3192901611328125,1.19879150390625,-0.14501953125
1774159276473639200,21.39163916015625,-0.412628173828125,0.92889404296875,-0.2402496337890625
1774159276493632300,21.41163232421875,-0.434600830078125,0.7567901611328125,-0.3848724365234375
1774159276513625000,21.431625,-0.409088134765625,0.668975830078125,-0.488311767578125
1774159276533619200,21.451619140625,-0.3427581787109375,0.7009429931640625,-0.4463043212890625
1774159276553612300,21.4716123046875,0.04095458984375,0.9225616455078125,-0.32867431640625
1774159276573605400,21.49160546875,0.0086212158203125,1.0235443115234375,-0.0424041748046875
1774159276593599200,21.51159912109375,-0.1277008056640625,0.961517333984375,-0.075347900390625
1774159276613592000,21.531592041015625,-0.219451904296875,0.94781494140625,-0.2146453857421875
1774159276633585200,21.551585205078126,-0.2543487548828125,0.9145050048828125,-0.25482177734375
1774159276653578200,21.571578125,-0.132659912109375,0.82159423828125,-0.184478759765625
1774159276673572400,21.591572265625,-0.0360870361328125,0.7650604248046875,-0.102142333984375
1774159276693565200,21.611565185546876,-0.015625,0.778411865234375,-0.037933349609375
1774159276713558300,21.631558349609374,-0.0114593505859375,0.8012847900390625,-0.02362060546875
1774159276733552000,21.65155224609375,-0.0268707275390625,0.8186492919921875,-0.0531463623046875
1774159276753546200,21.671546142578126,-0.02276611328125,0.8291015625,-0.086761474609375
1774159276773539300,21.691539306640625,0.001983642578125,0.81915283203125,-0.093658447265625
1774159276793532200,21.7115322265625,-0.00848388671875,0.8291168212890625,-0.0832672119140625
1774159276813525200,21.731525146484376,-0.0044403076171875,0.8406219482421875,-0.045928955078125
1774159276833519000,21.75151904296875,-0.0484161376953125,0.87518310546875,-0.00164794921875
1774159276853512200,21.77151220703125,-0.135772705078125,0.946380615234375,-0.021820068359375
1774159276873505300,21.79150537109375,-0.1523284912109375,1.039764404296875,-0.0710906982421875
1774159276893498000,21.811498046875,-0.101348876953125,1.1674652099609375,-0.08935546875
1774159276913492200,21.8314921875,-0.097442626953125,1.2732086181640625,-0.1271820068359375
1774159276933485300,21.8514853515625,-0.2327423095703125,1.4376983642578125,-0.101470947265625
1774159276953478400,21.871478515625,-0.3400726318359375,1.4194488525390625,0.022003173828125
1774159276973471200,21.89147119140625,-0.2769317626953125,1.089691162109375,0.0659332275390625
1774159276993465000,21.911465087890626,-0.29815673828125,0.90374755859375,0.10797119140625
1774159277013458200,21.931458251953124,-0.412506103515625,0.810699462890625,0.19403076171875
1774159277033451300,21.951451171875,-0.4300994873046875,0.9971466064453125,0.181854248046875
1774159277053445400,21.9714453125,-0.39501953125,1.3258514404296875,0.0406494140625
1774159277073438200,21.991438232421874,-0.37774658203125,1.4685211181640625,-0.1101226806640625
1774159277093431300,22.011431396484376,-0.3773345947265625,1.212615966796875,-0.1786346435546875
1774159277113424400,22.03142431640625,-0.3220977783203125,0.9554901123046875,-0.20379638671875
1774159277133418200,22.051418212890624,-0.1774139404296875,0.835235595703125,-0.18560791015625
1774159277153411000,22.0714111328125,-0.0909881591796875,0.7778778076171875,-0.0677032470703125
1774159277173404200,22.091404052734376,-0.112457275390625,0.7070465087890625,0.0546875
1774159277193397200,22.111397216796874,-0.1626129150390625,0.694427490234375,0.11334228515625
1774159277213391400,22.131391357421876,-0.16790771484375,0.70208740234375,0.0982513427734375
1774159277233384200,22.15138427734375,-0.2045745849609375,0.7085113525390625,0.0188751220703125
1774159277253377300,22.171377197265624,-0.1791534423828125,0.7330322265625,-0.03875732421875
1774159277273370400,22.191370361328126,-0.213714599609375,0.7503509521484375,-0.012603759765625
1774159277293364200,22.2113642578125,-0.1800537109375,0.794586181640625,0.0377044677734375
1774159277313357300,22.231357421875,-0.06451416015625,0.8657684326171875,0.0749053955078125
1774159277333350100,22.25135009765625,0.0195770263671875,0.893524169921875,0.080291748046875
1774159277353344300,22.27134423828125,-0.014739990234375,0.8846893310546875,0.0360565185546875
1774159277373337300,22.29133740234375,-0.1601409912109375,0.90899658203125,0.0042266845703125
1774159277393330400,22.311330322265626,-0.2541961669921875,1.010406494140625,0.0448455810546875
1774159277413323300,22.3313232421875,-0.2595062255859375,1.1931304931640625,0.14324951171875
1774159277433317000,22.351317138671874,-0.2044830322265625,1.37359619140625,0.232574462890625
1774159277453310200,22.371310302734376,-0.09222412109375,1.531219482421875,0.1610870361328125
1774159277473303300,22.39130322265625,-0.0350494384765625,1.627685546875,-0.175262451171875
1774159277493296000,22.411296142578124,-0.159759521484375,1.5928192138671875,-0.4288787841796875
1774159277513290200,22.431290283203126,-0.3734283447265625,1.4060516357421875,-0.5007171630859375
1774159277533283300,22.451283447265624,-0.4132537841796875,1.13568115234375,-0.4620208740234375
1774159277553276400,22.4712763671875,-0.33544921875,0.9310455322265625,-0.470001220703125
1774159277573270300,22.491270263671876,-0.3126678466796875,0.825469970703125,-0.522216796875
1774159277593263000,22.51126318359375,-0.3483734130859375,0.7706451416015625,-0.581512451171875
1774159277613256200,22.531256103515624,-0.344696044921875,0.7216644287109375,-0.5677947998046875
1774159277633249300,22.551249267578125,-0.158203125,0.7545928955078125,-0.4704437255859375
1774159277653243400,22.571243408203124,-0.0650787353515625,0.8196563720703125,-0.28271484375
1774159277673236200,22.591236328125,-0.0531158447265625,0.818939208984375,-0.1703033447265625
1774159277693229300,22.611229248046875,-0.0740203857421875,0.8058624267578125,-0.174896240234375
1774159277713222100,22.63122216796875,-0.1550140380859375,0.7903289794921875,-0.2095794677734375
1774159277733215200,22.65121533203125,-0.16082763671875,0.80218505859375,-0.214569091796875
1774159277753208300,22.671208251953125,-0.108154296875,0.80804443359375,-0.202880859375
1774159277773201400,22.691201416015623,-0.0540008544921875,0.8275604248046875,-0.176361083984375
1774159277793195500,22.711195556640625,-0.000640869140625,0.835968017578125,-0.1532440185546875
1774159277813188600,22.731188720703123,0.027069091796875,0.8632965087890625,-0.13775634765625
1774159277833181400,22.751181396484377,0.01959228515625,0.862579345703125,-0.14556884765625
1774159277853174500,22.771174560546875,0.01214599609375,0.869110107421875,-0.16571044921875
1774159277873168400,22.79116845703125,0.0118255615234375,0.860321044921875,-0.2072601318359375
1774159277893161500,22.811161376953127,0.022735595703125,0.8277587890625,-0.2424163818359375
1774159277913154300,22.831154296875,0.0419464111328125,0.812164306640625,-0.233367919921875
1774159277933148400,22.8511484375,0.095123291015625,0.81915283203125,-0.1849365234375
1774159277953141500,22.8711416015625,0.12677001953125,0.8395233154296875,-0.1444854736328125
1774159277973134600,22.891134521484375,0.1002349853515625,0.88922119140625,-0.1184844970703125
1774159277993127400,22.91112744140625,0.068817138671875,0.9187164306640625,-0.137908935546875
1774159278013121300,22.931121337890627,0.0130767822265625,0.9660491943359375,-0.2025909423828125
1774159278033114400,22.9511142578125,-0.057708740234375,1.081939697265625,-0.267425537109375
1774159278053107500,22.971107421875,-0.053497314453125,1.19580078125,-0.2938232421875
1774159278073101600,22.9911015625,0.037933349609375,1.2876129150390625,-0.2798919677734375
1774159278093094400,23.011094482421875,0.119659423828125,1.35333251953125,-0.213836669921875
1774159278113087500,23.03108740234375,0.031036376953125,1.4190216064453125,-0.083526611328125
1774159278133080600,23.05108056640625,-0.0551910400390625,1.406707763671875,-0.0016937255859375
1774159278153074400,23.071074462890625,-0.1048583984375,1.289825439453125,-0.0240020751953125
1774159278173067300,23.0910673828125,-0.2685394287109375,1.1253509521484375,-0.1402587890625
1774159278193060400,23.111060302734376,-0.2580108642578125,0.95684814453125,-0.2533111572265625
1774159278213054500,23.131054443359375,-0.3451995849609375,0.8577880859375,-0.234893798828125
1774159278233047600,23.151047607421877,-0.398590087890625,0.8302001953125,-0.111846923828125
1774159278253040600,23.17104052734375,-0.3541412353515625,0.87310791015625,0.00567626953125
1774159278273033500,23.191033447265625,-0.3272552490234375,0.9676513671875,0.079345703125
1774159278293027300,23.21102734375,-0.2946929931640625,1.0380401611328125,0.1036529541015625
1774159278313020400,23.2310205078125,-0.1791229248046875,1.0606689453125,0.0339813232421875
1774159278333013500,23.251013427734375,-0.10699462890625,1.0102386474609375,-0.0797271728515625
1774159278353007600,23.271007568359376,-0.057525634765625,0.9494476318359375,-0.1543731689453125
1774159278373000400,23.29100048828125,-0.0318603515625,0.878173828125,-0.167022705078125
1774159278392993500,23.31099365234375,-0.0492095947265625,0.83123779296875,-0.064971923828125
1774159278412986600,23.330986572265626,-0.0843505859375,0.7562255859375,0.0134735107421875
1774159278432980500,23.35098046875,-0.0806884765625,0.7216796875,-0.0047149658203125
1774159278452973300,23.370973388671874,-0.0667572021484375,0.7362213134765625,-0.048614501953125
1774159278472966400,23.39096630859375,-0.039031982421875,0.7567901611328125,-0.078948974609375
1774159278492960500,23.41096044921875,-0.0319671630859375,0.790771484375,-0.082427978515625
1774159278512953600,23.43095361328125,-0.04193115234375,0.8525238037109375,-0.06561279296875
1774159278532946400,23.450946533203126,-0.0510406494140625,0.89373779296875,-0.0030517578125
1774159278552939500,23.470939453125,-0.0515594482421875,0.90142822265625,0.0771484375
1774159278572933400,23.490933349609374,-0.0877532958984375,0.89935302734375,0.0906829833984375
1774159278592926500,23.510926513671876,-0.0342254638671875,0.96942138671875,0.075408935546875
1774159278612919600,23.53091943359375,-0.1378631591796875,1.082763671875,0.0404510498046875
1774159278632913400,23.550913330078124,-0.1112213134765625,1.219451904296875,-0.025360107421875
1774159278652906500,23.570906494140626,-0.0802764892578125,1.3556060791015625,-0.080474853515625
1774159278672899600,23.590899658203124,0.0452423095703125,1.363128662109375,-0.051300048828125
1774159278692893400,23.6108935546875,0.1182403564453125,1.33197021484375,-0.02545166015625
1774159278712886300,23.63088623046875,0.014801025390625,1.4126739501953125,-0.151611328125
1774159278732880000,23.6508798828125,-0.0828704833984375,1.5005340576171875,-0.3164520263671875
1774159278752873000,23.670873046875,-0.22979736328125,1.3936004638671875,-0.381927490234375
1774159278772867000,23.6908671875,-0.4131011962890625,1.2005157470703125,-0.2960052490234375
1774159278792860000,23.71085986328125,-0.47088623046875,0.904815673828125,-0.24176025390625
1774159278812852700,23.730852783203126,-0.4813385009765625,0.6536712646484375,-0.2891387939453125
1774159278832846800,23.750846923828124,-0.4041748046875,0.5666046142578125,-0.42010498046875
1774159278852840000,23.77083984375,-0.241973876953125,0.6915283203125,-0.5219268798828125
1774159278872833000,23.7908330078125,-0.07989501953125,0.82830810546875,-0.5052490234375
1774159278892825900,23.810825927734374,-0.055816650390625,0.9244232177734375,-0.3132781982421875
1774159278912820000,23.830820068359376,-0.12957763671875,0.9300384521484375,-0.132354736328125
1774159278932813000,23.85081298828125,-0.1527557373046875,0.925872802734375,-0.0455474853515625
1774159278952806000,23.870805908203124,-0.1295166015625,0.8685760498046875,-0.076751708984375
1774159278972800000,23.890800048828126,-0.121307373046875,0.8852691650390625,-0.12457275390625
1774159278992792800,23.910792724609376,-0.1050567626953125,0.87420654296875,-0.137786865234375
1774159279012786000,23.930785888671874,-0.0997467041015625,0.8451690673828125,-0.14862060546875
1774159279032780000,23.950780029296876,-0.0601348876953125,0.8209686279296875,-0.1482086181640625
1774159279052773000,23.970773193359374,-0.0293426513671875,0.804473876953125,-0.14990234375
1774159279072766000,23.990765869140624,-0.0113983154296875,0.77471923828125,-0.1467742919921875
1774159279092758800,24.0107587890625,0.036773681640625,0.7274627685546875,-0.1183013916015625
1774159279112753000,24.0307529296875,0.0441741943359375,0.70703125,-0.0995025634765625
1774159279132746000,24.05074609375,-0.06451416015625,0.789154052734375,-0.1455230712890625
1774159279152739000,24.070739013671876,-0.0636749267578125,0.88433837890625,-0.2035675048828125
1774159279172733200,24.090733154296874,-0.0479278564453125,0.9541778564453125,-0.2296600341796875
1774159279192726000,24.11072607421875,-0.047119140625,1.024566650390625,-0.2433013916015625
1774159279212718800,24.13071875,-0.0395050048828125,1.1178436279296875,-0.2286834716796875
1774159279232712000,24.1507119140625,0.0175628662109375,1.20660400390625,-0.1646881103515625
1774159279252706000,24.1707060546875,0.0504913330078125,1.24383544921875,-0.144989013671875
1774159279272699000,24.190698974609376,0.018096923828125,1.226348876953125,-0.179840087890625
1774159279292692000,24.21069189453125,-0.0439910888671875,1.3300933837890625,-0.178131103515625
1774159279312686000,24.23068603515625,-0.090850830078125,1.4154815673828125,-0.0795135498046875
1774159279332679000,24.250678955078126,-0.1970062255859375,1.3635406494140625,-0.059600830078125
1774159279352671700,24.270671630859376,-0.3266448974609375,1.248748779296875,-0.147552490234375
1774159279372665900,24.290665771484374,-0.3856201171875,1.0207977294921875,-0.271209716796875
1774159279392659000,24.310658935546876,-0.437255859375,0.787933349609375,-0.302459716796875
1774159279412652000,24.330652099609374,-0.59051513671875,0.6782379150390625,-0.16741943359375
1774159279432644900,24.350644775390624,-0.5691070556640625,0.696990966796875,0.0328521728515625
1774159279452639000,24.370638916015626,-0.451904296875,0.8864288330078125,0.1417388916015625
1774159279472631800,24.3906318359375,-0.2951507568359375,1.0853271484375,0.1594390869140625
1774159279492625000,24.410625,-0.1730804443359375,1.1400909423828125,0.1116485595703125
1774159279512619000,24.430618896484376,-0.1446685791015625,1.0601043701171875,0.0067901611328125
1774159279532611800,24.45061181640625,-0.11328125,0.9920196533203125,-0.10992431640625
1774159279552605000,24.47060498046875,-0.12274169921875,0.92376708984375,-0.141082763671875
1774159279572599000,24.49059912109375,-0.13568115234375,0.8136444091796875,-0.0488739013671875
1774159279592592100,24.510592041015624,-0.1382904052734375,0.76116943359375,0.0626983642578125
1774159279612585000,24.5305849609375,-0.1916961669921875,0.72271728515625,0.1181640625
1774159279632578800,24.550578857421876,-0.252777099609375,0.6396484375,0.0978240966796875
1774159279652572000,24.570572021484374,-0.2743682861328125,0.5743560791015625,0.0156097412109375
1774159279672565000,24.59056494140625,-0.2627716064453125,0.5994873046875,-0.0478057861328125
1774159279692558000,24.61055810546875,-0.19329833984375,0.664642333984375,-0.0503997802734375
1774159279712552000,24.630552001953124,-0.1599578857421875,0.7593231201171875,0.013763427734375
1774159279732545000,24.650544921875,-0.139617919921875,0.8507537841796875,0.052215576171875
1774159279752537600,24.67053759765625,-0.1517333984375,0.994232177734375,0.02972412109375
1774159279772531700,24.69053173828125,-0.194580078125,1.1571807861328125,0.0218963623046875
1774159279792524800,24.71052490234375,-0.1930084228515625,1.2230987548828125,0.0608673095703125
1774159279812518000,24.730517822265625,-0.217864990234375,1.2162628173828125,0.131622314453125
1774159279832512000,24.750511962890624,-0.2385101318359375,1.25360107421875,0.1640472412109375
1774159279852504800,24.7705048828125,-0.1883544921875,1.3094940185546875,0.1222686767578125
1774159279872498000,24.790497802734375,-0.151092529296875,1.374664306640625,0.00482177734375
1774159279892491800,24.81049169921875,-0.2224273681640625,1.4407958984375,-0.1514739990234375
1774159279912484900,24.83048486328125,-0.3488311767578125,1.53277587890625,-0.242095947265625
1774159279932477700,24.850477783203125,-0.4845428466796875,1.520111083984375,-0.1850433349609375
1774159279952470800,24.870470703125,-0.48114013671875,1.3334197998046875,-0.0369110107421875
1774159279972465000,24.89046484375,-0.430572509765625,0.944000244140625,0.038604736328125
1774159279992458000,24.9104580078125,-0.4059295654296875,0.67529296875,0.010498046875
1774159280012450800,24.930450927734373,-0.39483642578125,0.57501220703125,-0.05865478515625
1774159280032444700,24.950444580078123,-0.438720703125,0.6129150390625,-0.13970947265625
1774159280052437800,24.970437744140625,-0.5018463134765625,0.770233154296875,-0.1979522705078125
1774159280072430800,24.990430908203123,-0.3957061767578125,0.948211669921875,-0.18212890625
1774159280092425000,25.010425048828125,-0.2043609619140625,0.969085693359375,-0.0807342529296875
1774159280112418000,25.03041796875,-0.056121826171875,0.87548828125,-0.01910400390625
1774159280132411000,25.050410888671873,-0.079193115234375,0.7888946533203125,-0.0123138427734375
1774159280152404700,25.07040478515625,-0.215850830078125,0.781219482421875,-0.087646484375
1774159280172397800,25.090397705078125,-0.26177978515625,0.8125457763671875,-0.1481475830078125
1774159280192391000,25.110390869140623,-0.22503662109375,0.850311279296875,-0.15399169921875
1774159280212383700,25.1303837890625,-0.2042694091796875,0.900634765625,-0.1352996826171875
1774159280232377900,25.1503779296875,-0.163116455078125,0.9177703857421875,-0.079803466796875
1774159280252371000,25.170370849609377,-0.10205078125,0.933868408203125,-0.0360870361328125
1774159280272363800,25.19036376953125,-0.047271728515625,0.9577789306640625,-0.032501220703125
1774159280292358000,25.21035791015625,-0.0420989990234375,0.9485321044921875,-0.0767364501953125
1774159280312350700,25.230350830078127,-0.05352783203125,0.9416961669921875,-0.129486083984375
1774159280332343800,25.25034375,-0.0501556396484375,0.950164794921875,-0.161224365234375
1774159280352338000,25.270337890625,-0.0459442138671875,0.9410247802734375,-0.171844482421875
1774159280372331000,25.2903310546875,-0.0687713623046875,0.9266510009765625,-0.12451171875
1774159280392323800,25.31032373046875,-0.0423736572265625,0.9178009033203125,-0.0651397705078125
1774159280412317700,25.330317626953125,-0.065032958984375,0.929840087890625,-0.0510101318359375
1774159280432310800,25.350310791015627,-0.0787200927734375,0.9720001220703125,-0.10394287109375
1774159280452304000,25.370303955078125,-0.0841522216796875,1.0402374267578125,-0.1731719970703125
1774159280472298000,25.390298095703123,-0.078948974609375,1.0774688720703125,-0.1816558837890625
1774159280492290800,25.410290771484377,-0.125732421875,1.131103515625,-0.099334716796875
1774159280512284000,25.430283935546875,-0.2253265380859375,1.2036895751953125,-0.0405731201171875
1774159280532277800,25.45027783203125,-0.2967987060546875,1.1489105224609375,-0.047515869140625
1774159280552270800,25.470270751953127,-0.26751708984375,0.964447021484375,-0.0889739990234375
1774159280572263700,25.490263671875,-0.418701171875,0.9803924560546875,-0.0619354248046875
1774159280592256800,25.5102568359375,-0.555908203125,1.10321044921875,-0.04534912109375
1774159280612251000,25.5302509765625,-0.47430419921875,1.237884521484375,-0.08856201171875
1774159280632244000,25.550243896484375,-0.2641143798828125,1.2527923583984375,-0.1294403076171875
1774159280652237000,25.570237060546877,-0.12432861328125,1.1591949462890625,-0.146026611328125
1774159280672230700,25.590230712890627,-0.0834808349609375,0.9890289306640625,-0.16876220703125
1774159280692223700,25.6102236328125,-0.08404541015625,0.8165740966796875,-0.19866943359375
1774159280712216800,25.630216796875,-0.0983428955078125,0.6788482666015625,-0.1934051513671875
1774159280732211000,25.6502109375,-0.1139068603515625,0.550018310546875,-0.160919189453125
1774159280752204000,25.6702041015625,-0.1418609619140625,0.5084075927734375,-0.135955810546875
1774159280772196900,25.69019677734375,-0.163665771484375,0.5760345458984375,-0.112457275390625
1774159280792190700,25.710190673828127,-0.1878509521484375,0.62652587890625,-0.0975799560546875
1774159280812183800,25.730183837890625,-0.2378692626953125,0.69879150390625,-0.0805511474609375
1774159280832177000,25.750177001953126,-0.2256317138671875,0.81671142578125,-0.0785369873046875
