time,seconds_elapsed,z,y,x
1774159255147265800,0.065265869140625,-8.161644658902286,-5.432554041531682,0.2128337175861932
1774159255167258600,0.085258544921875,-8.096276991456747,-5.532840462145209,0.09146439612926915
1774159255187251500,0.10525146484375,-8.042258985543251,-5.611755593428016,-0.02555072130667977
1774159255207244500,0.12524462890625,-7.997590991777181,-5.673900207173824,-0.12561735255653037
1774159255227237400,0.1452373046875,-7.953339762118459,-5.733060836672783,-0.21630411537680774
1774159255247230500,0.16523046875,-7.906952104952931,-5.793139165538549,-0.3000541012038477
1774159255267223600,0.1852236328125,-7.854716890802979,-5.857135544630885,-0.4095920968253165
1774159255287216600,0.205216552734375,-7.785352847197651,-5.93851443567872,-0.5410298443647101
1774159255307207700,0.225207763671875,-7.701047255048155,-6.0322892824411385,-0.6897381679177284
1774159255327200800,0.24520068359375,-7.594184963175654,-6.145125388026237,-0.8580033152580261
1774159255347193600,0.265193603515625,-7.472215118542313,-6.263411575710773,-1.0516942149516195
1774159255367186400,0.2851865234375,-7.391145439574122,-6.330079219838977,-1.2130314627248793
1774159255387179500,0.305179443359375,-7.3982427043586965,-6.292133227804303,-1.358471103338152
1774159255407172600,0.325172607421875,-7.477534852260351,-6.171420105233788,-1.4732412457257509
1774159255427165400,0.34516552734375,-7.583346173775196,-6.014930735883117,-1.5760251822434366
1774159255447158500,0.365158447265625,-7.659725649100541,-5.861170499235391,-1.7736033716991542
1774159255467151600,0.385151611328125,-7.669189643016457,-5.751183937862515,-2.0682840910352764
1774159255487144400,0.40514453125,-7.617850500923395,-5.675953632572293,-2.4335747623845934
1774159255507137500,0.425137451171875,-7.5461407709747546,-5.591801185157895,-2.8209751203417777
1774159255527130600,0.445130615234375,-7.488626155117154,-5.462849811074137,-3.2012700302079318
1774159255547123700,0.465123779296875,-7.466909413349628,-5.318962149143219,-3.48199426651448
1774159255567115500,0.485115478515625,-7.462696764090657,-5.215348629933596,-3.6439933391973374
1774159255587108600,0.505108642578125,-7.481372822988033,-5.1444695055902,-3.7059251869753003
1774159255607101700,0.525101806640625,-7.553850614699721,-5.039772282797098,-3.7027591241598126
1774159255627094500,0.545094482421875,-7.6626336455017325,-4.893693540562689,-3.6750773365080356
1774159255647087600,0.565087646484375,-7.756646392673254,-4.746487547864019,-3.670922847177088
1774159255667080700,0.585080810546875,-7.79035401648581,-4.6451931192517275,-3.7286663033545016
1774159255687073500,0.605073486328125,-7.7657187569230794,-4.598353918926418,-3.8365529698386784
1774159255707067400,0.6250673828125,-7.730324787458777,-4.56705394077748,-3.943916489231586
1774159255727060500,0.645060546875,-7.709625113779306,-4.536214273616672,-4.019307538041472
1774159255747053600,0.665053466796875,-7.6806182150036095,-4.513880568994582,-4.099191806617379
1774159255767046700,0.685046630859375,-7.621400886881351,-4.502369871681928,-4.220580928753316
1774159255787039500,0.70503955078125,-7.544943085622787,-4.4897199412062765,-4.368825032328069
1774159255807032600,0.725032470703125,-7.474755450674891,-4.465622734043002,-4.511832112032175
1774159255827025700,0.745025634765625,-7.421057178235054,-4.427634071910381,-4.636199373196066
1774159255847018500,0.7650185546875,-7.375144737365842,-4.37792428458482,-4.755144901572168
1774159255867011600,0.785011474609375,-7.3185747088819735,-4.321663760441542,-4.892042266224324
1774159255887004700,0.805004638671875,-7.229075639742613,-4.259783935111761,-5.075931975936889
1774159255906997800,0.824997802734375,-7.099560202035308,-4.203125351561606,-5.300978164163231
1774159255926990600,0.844990478515625,-6.944176748099923,-4.155049595178664,-5.53934677529931
1774159255946983700,0.864983642578125,-6.796353500285744,-4.093717466859519,-5.763804349982738
1774159255966975700,0.884975830078125,-6.682527799141407,-4.002641357661783,-5.957606089639663
1774159255986968600,0.904968505859375,-6.590984656953811,-3.8876749620497226,-6.133130998849868
1774159256006961700,0.924961669921875,-6.479439175701141,-3.7428479734420774,-6.338639542913437
1774159256026954800,0.944954833984375,-6.330602951452136,-3.5723265716075896,-6.582730038827657
1774159256046947600,0.964947509765625,-6.156620595508813,-3.382482337404787,-6.842894886708259
1774159256066940700,0.984940673828125,-5.965006136763096,-3.175065621632337,-7.106901212447881
1774159256086933500,1.00493359375,-5.738459480845928,-2.958274928314984,-7.381671508786082
1774159256106926600,1.024926513671875,-5.492580932471156,-2.745798006543517,-7.646078816542029
1774159256126919400,1.04491943359375,-5.27272588314712,-2.5678365178361533,-7.8597052006095645
1774159256146912500,1.06491259765625,-5.107702494207024,-2.4268672275699674,-8.011995949226618
1774159256166905600,1.084905517578125,-5.0002100877374405,-2.2659319847263393,-8.126120341056584
1774159256186898400,1.1048984375,-4.917746324062347,-2.0849315667144954,-8.224307159042358
1774159256206891500,1.1248916015625,-4.840671852210164,-1.9651587937340138,-8.299182075023651
1774159256226884600,1.144884521484375,-4.766615266874433,-1.8939264720387756,-8.35839706505835
1774159256246877700,1.164877685546875,-4.70030973405689,-1.8324181103698909,-8.409501229351758
1774159256266870500,1.18487060546875,-4.653026881617308,-1.7579333627499638,-8.45159089706242
1774159256286863600,1.204863525390625,-4.610629170870781,-1.6918739136479795,-8.488229898151754
1774159256306856700,1.224856689453125,-4.544318377356231,-1.6343028914280235,-8.535140702408551
1774159256326849500,1.244849609375,-4.4742453086987135,-1.5691808693066238,-8.584239956620335
1774159256346841600,1.264841552734375,-4.400772076208889,-1.4957994067534803,-8.635170517912506
1774159256366834700,1.284834716796875,-4.316129214929044,-1.4133110931590198,-8.691603183752298
1774159256386827500,1.30482763671875,-4.2082434252277015,-1.3277581312969327,-8.757746511745452
1774159256406820600,1.324820556640625,-4.08718835735172,-1.2305734760910272,-8.828983948007226
1774159256426813700,1.344813720703125,-3.980597868157923,-1.1297366550531238,-8.890945606401562
1774159256446806800,1.364806884765625,-3.89143723719269,-1.0281644324127583,-8.942592791530489
1774159256466799600,1.384799560546875,-3.785874629741907,-0.9321832347124814,-8.998253888475894
1774159256486792400,1.40479248046875,-3.652570905667543,-0.8312048132468014,-9.06301365315616
1774159256506785500,1.42478564453125,-3.547574115405977,-0.7001384928356855,-9.115641666015982
1774159256526778400,1.4447783203125,-3.467504845651984,-0.5418545316858216,-9.157138628530502
1774159256546771500,1.464771484375,-3.3943875869929787,-0.3831196849633008,-9.19248291363418
1774159256566764500,1.4847646484375,-3.2945974254637953,-0.277572128951177,-9.232495190548896
1774159256586757600,1.504757568359375,-3.135203859104216,-0.19428369622128083,-9.28994843160808
1774159256606750500,1.52475048828125,-2.9788056751683354,-0.08705695495055987,-9.342887410113216
1774159256626743600,1.54474365234375,-2.859572854283452,0.09564538987465203,-9.379982338276506
1774159256646736600,1.564736572265625,-2.8035388323724266,0.375388104330562,-9.389868941518664
1774159256666729700,1.584729736328125,-2.7957880721151827,0.6293753960873931,-9.378582992872595
1774159256686722600,1.60472265625,-2.861655505776405,0.8461552026845515,-9.341592109605669
1774159256706714600,1.624714599609375,-2.965710046751797,1.0404704448215663,-9.289369170415402
1774159256726707500,1.64470751953125,-3.0168294086143375,1.2144332923468202,-9.25171719289124
1774159256746700500,1.664700439453125,-2.9042759193629024,1.3781037323080003,-9.264793532085418
1774159256766693600,1.684693603515625,-2.664237036927044,1.522983620146662,-9.314114320093394
1774159256786686700,1.704686767578125,-2.5162320028051735,1.69244177666381,-9.32601869289875
1774159256806679600,1.724679443359375,-2.31491521134302,1.7991002165272831,-9.358140508824587
1774159256826672600,1.744672607421875,-2.1557702129170297,1.8223444601230323,-9.391596788224577
1774159256846665700,1.764665771484375,-2.097113149026036,1.8818151784844694,-9.393151031929253
1774159256866658600,1.784658447265625,-2.028039028277993,1.9634629496015608,-9.391604971531033
1774159256886651400,1.8046513671875,-1.9585724010810255,2.0611406490214166,-9.38541956089437
1774159256906644500,1.82464453125,-1.9185145314589143,2.167627531710267,-9.369690076842904
1774159256926637600,1.844637451171875,-1.896496468657255,2.2467245954312385,-9.355529449543356
1774159256946630400,1.86463037109375,-1.8438083961732685,2.350784250973165,-9.340479764449595
1774159256966623500,1.88462353515625,-1.8117267661273477,2.5300921858534213,-9.299821006324887
1774159256986616600,1.904616455078125,-1.7648861044973134,2.7403692594930527,-9.24910613361001
1774159257006609700,1.924609619140625,-1.6545463457725942,2.9268571690052747,-9.212295283085107
1774159257026602500,1.9446025390625,-1.5478488890729845,3.06115545707494,-9.187159672784805
1774159257046594600,1.964594482421875,-1.481962750711292,3.1320380885496735,-9.174121327513456
1774159257066587600,1.984587646484375,-1.4833603425495325,3.204354552219808,-9.148888686579465
1774159257086580500,2.00458056640625,-1.5425252098321913,3.215703336969018,-9.135111505639552
1774159257106573600,2.024573486328125,-1.6364724905520676,3.1162694415315983,-9.153208303344249
1774159257126566700,2.044566650390625,-1.7720301310330628,2.9823800265237685,-9.172551301717757
1774159257146559500,2.0645595703125,-1.911274204941839,2.848952968330681,-9.186994837611913
1774159257166552600,2.084552490234375,-1.9001207966342568,2.698341551102698,-9.234656752496956
1774159257186545700,2.104545654296875,-1.8254757438860834,2.536950381185114,-9.295262320107222
1774159257206538800,2.124538818359375,-1.840082215256989,2.407719021116197,-9.326701998987794
1774159257226531600,2.144531494140625,-1.8620308660842477,2.3498292883358896,-9.337105319580434
1774159257246524700,2.164524658203125,-1.8541161474369465,2.363184882862866,-9.335307914769649
1774159257266517800,2.184517822265625,-1.866234162992984,2.438618017248809,-9.313469007927178
1774159257286510600,2.204510498046875,-1.9097798747308552,2.525902625209093,-9.281322642081975
1774159257306503400,2.22450341796875,-1.9347113407611847,2.6646093773707746,-9.237268980821966
1774159257326496500,2.24449658203125,-1.9096070023819802,2.7747230722546576,-9.21003201432824
1774159257346489600,2.264489501953125,-1.8876205037623643,2.928721209311485,-9.166779732578993
1774159257366481700,2.284481689453125,-1.8516759146779775,3.1945494897812603,-9.084962450113892
1774159257386474500,2.304474609375,-1.6673291088476776,3.455190138480067,-9.02507993608117
1774159257406467600,2.324467529296875,-1.4124050842300055,3.790294492010772,-8.933596999648213
1774159257426460400,2.34446044921875,-1.1723145446721464,4.255745181114971,-8.756979619026184
1774159257446453500,2.36445361328125,-1.0067314760226755,4.710833466158807,-8.5419503824234
1774159257466446600,2.384446533203125,-1.0009654598418622,4.9751948889464135,-8.391417875650525
1774159257486439400,2.404439453125,-1.186632627555728,5.040684721466898,-8.327893205723166
1774159257506432500,2.4244326171875,-1.3800320700220763,5.094643106147647,-8.265018524137139
1774159257526425600,2.444425537109375,-1.4400563306130467,5.209340329429507,-8.182872155848145
1774159257546418700,2.464418701171875,-1.3040322416640817,5.429878100320696,-8.061409676215051
1774159257566411500,2.48441162109375,-1.073202939991653,5.711240634530783,-7.899388976222276
1774159257586404600,2.504404541015625,-0.7985329622227698,6.00446136431694,-7.7122729979395865
1774159257606397700,2.524397705078125,-0.592730622844398,6.26789427408278,-7.518813788110017
1774159257626390500,2.544390625,-0.4775093026231974,6.505337587067484,-7.322770407006144
1774159257646383600,2.564383544921875,-0.42614729111120103,6.726607179364562,-7.123309326413273
1774159257666375700,2.584375732421875,-0.39115792039241637,6.931913478854298,-6.925744434830546
1774159257686368500,2.604368408203125,-0.33430249909590926,7.1220666328758,-6.7331123234748835
1774159257706361000,2.624361083984375,-0.2772524137438275,7.319747259792685,-6.520338172322512
1774159257726354200,2.644354248046875,-0.21087014416195451,7.540597749894857,-6.266203836777806
1774159257746347300,2.66434716796875,-0.1687540268357843,7.7487822351694104,-6.008184768754243
1774159257766340000,2.684340087890625,-0.13674135210653765,7.875780137097835,-5.841556282705068
1774159257786333200,2.704333251953125,-0.19700190567141398,7.937965667375922,-5.755024246677756
1774159257806326300,2.724326171875,-0.3602071940725669,7.964878808742761,-5.709757117974758
1774159257826319000,2.744319091796875,-0.43548594161439685,8.000954330730437,-5.653800252953172
1774159257846312000,2.76431201171875,-0.5053036472713575,8.007933522093296,-5.638089473602175
1774159257866305000,2.784304931640625,-0.6442183796279132,7.930735131600499,-5.732261210727692
1774159257886298000,2.804298095703125,-0.8772139194235206,7.7815996321439735,-5.903181841012835
1774159257906291000,2.824291015625,-1.0422969295963644,7.735031942236423,-5.9374470987081525
1774159257926284000,2.844283935546875,-1.01648897299245,7.744002599677443,-5.930225330761075
1774159257946277000,2.864277099609375,-0.926190862429887,7.78179427793324,-5.895442771193385
1774159257966270000,2.88427001953125,-0.8584955557543784,7.873978640633821,-5.7821986693292855
1774159257986262000,2.904261962890625,-0.80329769240655,8.120799438294767,-5.438540130203962
1774159258006255000,2.924255126953125,-1.0528275298304854,8.419094402605294,-4.917396195450425
1774159258026248000,2.944248046875,-1.4663799816541372,8.724334071487188,-4.231562049233913
1774159258046241000,2.964240966796875,-1.7065115108095108,9.044339932346343,-3.384982045266032
1774159258066234000,2.984234130859375,-1.8420907786004244,9.266756941112876,-2.6275997894033787
1774159258086227200,3.004227294921875,-1.8472965305499731,9.410255895987152,-2.050601427089423
1774159258106220000,3.024219970703125,-1.700970243295282,9.530718258666992,-1.5628540043726562
1774159258126213000,3.044213134765625,-1.4187275652498006,9.627080783835053,-1.2152901283718645
1774159258146206200,3.064206298828125,-1.0883029670331625,9.695981886103748,-0.9868784092351793
1774159258166199000,3.084198974609375,-0.7078636802602559,9.73674936529994,-0.9300777868658303
1774159258186192100,3.104192138671875,-0.30303605789039284,9.736547120726108,-1.1305801932051778
1774159258206185200,3.124185302734375,-0.06301931422110646,9.73484674654901,-1.1828783895887434
1774159258226178000,3.144177978515625,-0.024812168765906244,9.724776603433488,-1.2643193860873578
1774159258246171000,3.1641708984375,-0.12345114183281547,9.716219202968478,-1.3229574530169368
1774159258266163200,3.1841630859375,-0.24879054509764537,9.715960844293237,-1.3071280157223344
1774159258286156300,3.20415625,-0.33230529739670456,9.716059628492593,-1.2876844795837998
1774159258306149000,3.224149169921875,-0.40808625883962957,9.711043261635304,-1.3036445575207471
1774159258326142000,3.244141845703125,-0.49084586365614086,9.706233231005072,-1.310907242000103
1774159258346135000,3.264135009765625,-0.5707802184514701,9.699790630736947,-1.3261436818376182
1774159258366127900,3.2841279296875,-0.5936190230514854,9.692871645128726,-1.366098821737617
1774159258386121000,3.304120849609375,-0.5889007623579353,9.691033323785662,-1.3811148968227207
1774159258406114000,3.324114013671875,-0.590364551300183,9.685966688045859,-1.4155889749631285
1774159258426107100,3.344107177734375,-0.5882419331230223,9.677463063594699,-1.4734491893880068
1774159258446100000,3.364099853515625,-0.5772601550552994,9.673699327147006,-1.5022338237151502
1774159258466093000,3.384093017578125,-0.5195741646861657,9.674704704797268,-1.5167453102789819
1774159258486086100,3.404086181640625,-0.5233853570047766,9.674431148552895,-1.5171718651279806
1774159258506079000,3.424078857421875,-0.5112737711895257,9.672036362370848,-1.5364610874876379
1774159258526072000,3.444072021484375,-0.4822626711627468,9.659525255843997,-1.6221565265603362
1774159258546065200,3.464065185546875,-0.485027678896673,9.647932433205842,-1.688949404503405
1774159258566057000,3.484056884765625,-0.5255993067272007,9.639576108270884,-1.7241535504840313
1774159258586050000,3.504050048828125,-0.5590059748318046,9.630129065489768,-1.7659310835056006
1774159258606043100,3.524043212890625,-0.6318194282386451,9.625268765977024,-1.7678836788780987
1774159258626036200,3.5440361328125,-0.7856605481028557,9.615331893852353,-1.7602599060013888
1774159258646029000,3.564029052734375,-0.8462097824160009,9.610583822542429,-1.7581283008001745
1774159258666022100,3.584022216796875,-0.7541548913139849,9.614434068229794,-1.7788503324419258
1774159258686015200,3.60401513671875,-0.6551146713692695,9.625579731622338,-1.7576818722069263
1774159258706008300,3.62400830078125,-0.5960522780803963,9.634614101949333,-1.7289716182902455
1774159258726001400,3.64400146484375,-0.5357582241047173,9.645361121413112,-1.6883010235972702
1774159258745994500,3.663994384765625,-0.47954296387527134,9.658544428113103,-1.6287889503121376
1774159258765987300,3.6839873046875,-0.39723892080653456,9.681819505238533,-1.5082935621455311
1774159258785980400,3.70398046875,-0.285983764269948,9.709927409347891,-1.343844758222997
1774159258805973500,3.723973388671875,-0.1872820007656701,9.725454064303635,-1.2453265163257716
1774159258825966300,3.74396630859375,-0.074025482377992,9.734084530004859,-1.1884849774241446
1774159258845959400,3.76395947265625,0.04861819269657135,9.742214060446619,-1.121299446901679
1774159258865952500,3.783952392578125,0.1542251690120436,9.747985629585385,-1.0599024366527796
1774159258885944300,3.8039443359375,0.2103410605202429,9.750987149488925,-1.0219580520533025
1774159258905937400,3.8239375,0.2245379464432597,9.750991825664043,-1.0188898966543376
1774159258925930500,3.843930419921875,0.19600547851258887,9.743749599450826,-1.0914710026100278
1774159258945923600,3.863923583984375,0.1292534531697165,9.740339498746394,-1.1311323471952228
1774159258965916400,3.88391650390625,0.04199616704119835,9.75025006738603,-1.0494047888401896
1774159258985909500,3.903909423828125,0.015623501784697872,9.757344409561156,-0.9820182558529078
1774159259005902600,3.923902587890625,-0.004696096239981125,9.761936998048425,-0.9353958400834351
1774159259025895400,3.9438955078125,0.005375321521417936,9.764904615682363,-0.903874766529724
1774159259045888500,3.963888427734375,0.033242652632331005,9.768257433241605,-0.8662591754931956
1774159259065881600,3.983881591796875,0.06138665325166657,9.771517896342276,-0.8270701245948672
1774159259085874400,4.00387451171875,0.04768900382136926,9.77766765114367,-0.7518873847734182
1774159259105867300,4.0238671875,-0.009473091108645894,9.77990286284983,-0.7237414867412298
1774159259125860400,4.0438603515625,-0.07550143211549147,9.77456968512833,-0.788959662713483
1774159259145853400,4.063853515625,-0.11656437799376435,9.764730428159236,-0.8982371990341692
1774159259165846300,4.08384619140625,-0.1363423611178994,9.756300453466176,-0.9830533710543066
1774159259185839400,4.10383935546875,-0.15404864340135827,9.751731830376386,-1.024869482520595
1774159259205832400,4.12383251953125,-0.1865632215044461,9.747332718634604,-1.0606978248141705
1774159259225824300,4.14382421875,-0.21745978821795434,9.741934658983348,-1.1035453982200474
1774159259245817300,4.1638173828125,-0.19839219098603353,9.740767368769646,-1.1173680257368832
1774159259265810400,4.183810546875,-0.09208583422955124,9.750514271280169,-1.0437356571625918
1774159259285803500,4.203803466796875,0.021083247903268782,9.756321496254206,-0.9920391529992222
1774159259305796400,4.22379638671875,0.042638620530045586,9.763581258124113,-0.9170856188237666
1774159259325789400,4.24378955078125,-0.016412868913967395,9.770940973237156,-0.8359718815181404
1774159259345782500,4.263782470703125,-0.06520614760774188,9.770871415132284,-0.8343970334168523
1774159259365775400,4.283775390625,-0.08227553849346005,9.76976082354188,-0.8458135496400296
1774159259385768400,4.3037685546875,-0.09052214684309437,9.769021403351426,-0.8534708594601601
1774159259405761500,4.323761474609375,-0.10868570790737866,9.769783619895577,-0.8425473874509334
1774159259425754600,4.343754638671875,-0.17078949645245448,9.768959444031118,-0.8418210459377616
1774159259445747500,4.36374755859375,-0.260832390144933,9.765786074692011,-0.8554444976206869
1774159259465740500,4.383740478515625,-0.363454943822138,9.760207397776842,-0.8812676517937332
1774159259485733600,4.403733642578125,-0.4848933849925175,9.751980252179504,-0.9133021547622978
1774159259505726500,4.4237265625,-0.6297876301500946,9.74053239096999,-0.9464476877126842
1774159259525719300,4.44371923828125,-0.7391765909560024,9.729525843787192,-0.9799747673265635
1774159259545712400,4.46371240234375,-0.7871723409052938,9.722636084273457,-1.010498865732178
1774159259565705500,4.48370556640625,-0.8104759865380823,9.717114105981588,-1.044611197888106
1774159259585698300,4.5036982421875,-0.8449722765102982,9.711220371767878,-1.07172132313177
1774159259605690400,4.5236904296875,-0.9253221898365765,9.702622054770588,-1.0831894964769482
1774159259625683500,4.543683349609375,-1.0776819120366126,9.690539987310766,-1.0499633725710213
1774159259645676300,4.56367626953125,-1.2670013186477125,9.669175127720832,-1.0354362500466405
1774159259665669400,4.58366943359375,-1.4521157478496431,9.64359002008736,-1.0309769325502216
1774159259685662500,4.603662353515625,-1.6143142886273563,9.61662251818478,-1.0416069745708256
1774159259705657000,4.623656982421875,-1.794194470437616,9.581648819959163,-1.069234328621626
1774159259725650200,4.643650146484375,-2.00020482654348,9.534794129803776,-1.1212813267230988
1774159259745643300,4.663643310546875,-2.1934521471880375,9.48661666661203,-1.1675842282146214
1774159259765636000,4.683635986328125,-2.2829078155770897,9.46415875108838,-1.1783168538268656
1774159259785629000,4.70362890625,-2.3331124006822703,9.4506744156152,-1.1881654631461946
1774159259805622000,4.7236220703125,-2.3857040270544587,9.42533188456595,-1.2813691589571534
1774159259825615000,4.743614990234375,-2.4150085936024785,9.405251804089545,-1.3708920473635196
1774159259845608200,4.763608154296875,-2.394879267156869,9.403753674486278,-1.4157584863111377
1774159259865601000,4.78360107421875,-2.2988955121733246,9.432330365151167,-1.3844189068041741
1774159259885594000,4.803593994140625,-2.107307503043115,9.493244560319186,-1.2680549193538724
1774159259905587200,4.823587158203125,-1.9288583769492804,9.538730300208925,-1.2093569389306007
1774159259925580000,4.843580078125,-1.8796055396109819,9.543885783275961,-1.2456762065462768
1774159259945573000,4.863572998046875,-1.9062747892193495,9.540815874311328,-1.2285413857415317
1774159259965566200,4.883566162109375,-1.8780624018222092,9.551769814524054,-1.1861460861478
1774159259985559300,4.903559326171875,-1.818286416903883,9.565097498130799,-1.1718017728444188
1774159260005552000,4.92355224609375,-1.7270540942311285,9.583293080034851,-1.16111050215587
1774159260025545200,4.943545166015625,-1.5878728564254938,9.610272856897115,-1.1365287994112818
1774159260045538300,4.963538330078125,-1.4333124093107878,9.637799746248126,-1.1085159531742335
1774159260065531100,4.98353125,-1.3082576042741536,9.657006551021336,-1.095925205539912
1774159260085524000,5.00352392578125,-1.2360787955090402,9.66617419233918,-1.098885662780702
1774159260105517000,5.02351708984375,-1.1956159983478485,9.667961075755953,-1.1275690286904574
1774159260125509000,5.043509033203125,-1.1398435499824582,9.667543727126716,-1.1873193677108733
1774159260145502200,5.063502197265625,-1.047283997293934,9.668608726009726,-1.2615817778170109
1774159260165495000,5.0834951171875,-0.8930553394168614,9.671341365844011,-1.3557283805012703
1774159260185488100,5.103488037109375,-0.7596079690881073,9.674183895793556,-1.4154703170195222
1774159260205481000,5.12348095703125,-0.6791542300611734,9.674861941185593,-1.451271113719046
1774159260225474000,5.14347412109375,-0.6344674585293978,9.668718031603097,-1.5111924984574316
1774159260245467100,5.163467041015625,-0.6216239782430231,9.66143839598894,-1.5622310501687229
1774159260265460000,5.1834599609375,-0.6409488564379513,9.651767481324075,-1.6133666325137017
1774159260285453000,5.203453125,-0.6736821553256362,9.638721537268161,-1.6767789281077683
1774159260305446100,5.223446044921875,-0.7042404482617974,9.630309682753682,-1.7121764047034085
1774159260325439200,5.243439208984375,-0.6749535635009407,9.630662733975052,-1.7219691921822726
1774159260345432000,5.26343212890625,-0.5120724107539281,9.64118588155508,-1.7192153634294867
1774159260365425200,5.283425048828125,-0.39444644054379313,9.64836848653555,-1.7099086059018969
1774159260385418200,5.303418212890625,-0.37408805458266287,9.649626962164044,-1.7073764570757746
1774159260405411000,5.3234111328125,-0.4116771960036829,9.654358666861057,-1.6716078090801834
1774159260425404200,5.343404052734375,-0.478432774143666,9.656611998745799,-1.640526149857044
1774159260445397200,5.363397216796875,-0.5188446083026006,9.66302361935377,-1.5897095703333615
1774159260465390000,5.38339013671875,-0.5300290693355724,9.672508071535825,-1.5271103446878491
1774159260485383000,5.4033828125,-0.5235432509802281,9.676629535380005,-1.5030395871400832
1774159260505376000,5.4233759765625,-0.5279701640443876,9.675437695246934,-1.5091494483225047
1774159260525369000,5.443369140625,-0.5498032256679609,9.67309668507874,-1.5163528038300573
1774159260545362200,5.463362060546875,-0.5642640780230984,9.672603933125734,-1.514169322311133
1774159260565355000,5.48335498046875,-0.5590927032671869,9.672390582635998,-1.5174506820693612
1774159260585348000,5.50334814453125,-0.5392075973736122,9.669676062980294,-1.5417555406339465
1774159260605341200,5.523341064453125,-0.5163833327556029,9.666266546797752,-1.5706754917785524
1774159260625334000,5.543333984375,-0.5360816839054227,9.659468557220697,-1.605506858924031
1774159260645327000,5.5633271484375,-0.5574183403141796,9.650824647516012,-1.649624671461433
1774159260665320200,5.5833203125,-0.5884517764814198,9.643092007437348,-1.6837126728937029
1774159260685313300,5.603313232421875,-0.643706411517784,9.636630117946863,-1.7004029648013412
1774159260705303600,5.623303466796875,-0.6706756669860333,9.637563014882803,-1.684625549954921
1774159260725296400,5.64329638671875,-0.6650692252811045,9.638080901277064,-1.6838855452425776
1774159260745289500,5.66328955078125,-0.6150903386905789,9.634554480716586,-1.7226185960017144
1774159260765282600,5.683282470703125,-0.5651206217871979,9.632711483198404,-1.749816691789776
1774159260785275400,5.703275390625,-0.531887593216449,9.633787003475428,-1.754309619294852
1774159260805268500,5.7232685546875,-0.5743037164025009,9.631272974827885,-1.7547507871910928
1774159260825261600,5.743261474609375,-0.6621382863957435,9.627339727032185,-1.7453566436409949
1774159260845254700,5.763254638671875,-0.7101955572739244,9.634128364259004,-1.6880791975401341
1774159260865247500,5.78324755859375,-0.7107254263669252,9.648639120170474,-1.6028218576237558
1774159260885240600,5.803240478515625,-0.657089624704048,9.664242932015657,-1.530041575834155
1774159260905233700,5.823233642578125,-0.5191407417049632,9.678625677633285,-1.4916750202998519
1774159260925226800,5.843226806640625,-0.26987092519039285,9.691217448180913,-1.4757510365895925
1774159260945219600,5.863219482421875,-0.028335874496202448,9.696712538465857,-1.4640228971339762
1774159260965212700,5.883212646484375,0.07194500457581599,9.702754741239547,-1.4218848602369427
1774159260985205800,5.903205810546875,0.04872304587711114,9.709960727095604,-1.3728249151222407
1774159261005198600,5.923198486328125,0.039940097594493996,9.713523388013243,-1.347684044124931
1774159261025191400,5.94319140625,0.07628353153704664,9.715759184241294,-1.3298926591075957
1774159261045184500,5.9631845703125,0.12723222214095295,9.718915602445602,-1.302639472131431
1774159261065177600,5.983177490234375,0.14266924431817604,9.72246306579411,-1.2742610805176198
1774159261085170400,6.00317041015625,0.1388932603102643,9.723774732914567,-1.2646416037790476
1774159261105163500,6.02316357421875,0.12217481088722124,9.725059512028098,-1.2564496756255625
1774159261125156600,6.043156494140625,0.14461880748337133,9.723979900097847,-1.26241749798879
1774159261145149400,6.0631494140625,0.15011018057442269,9.720556355389952,-1.2878881854623556
1774159261165142500,6.083142578125,0.03572759674928384,9.713793437126279,-1.3458471840865909
1774159261185135600,6.103135498046875,-0.08086428345604799,9.706045014956594,-1.3987617588028312
1774159261205128700,6.123128662109375,-0.1116824877037201,9.694088035181164,-1.4773555491767822
1774159261225121500,6.14312158203125,0.031092486577830276,9.684960141351818,-1.5397965155206619
1774159261245114600,6.163114501953125,0.22708332007713614,9.684590138995647,-1.5256192293472588
1774159261265107700,6.183107666015625,0.42431876050978895,9.684740945643187,-1.4819406850099563
1774159261285100500,6.2031005859375,0.6045344213521108,9.681773912531137,-1.438121855419129
1774159261305093600,6.22309375,0.7339169168621301,9.676959205725788,-1.4100490226231515
1774159261325086700,6.243086669921875,0.8153787369530647,9.668407650479674,-1.4238821715340018
1774159261345079600,6.26307958984375,0.8456083824567496,9.659714056414366,-1.4646666018649934
1774159261365072400,6.283072265625,0.7761855213362723,9.66125485611558,-1.492678059862554
1774159261385065500,6.3030654296875,0.5951055718148127,9.669043025773764,-1.5250664177700877
1774159261405058600,6.32305859375,0.5656954990657046,9.665426588842273,-1.5588253333784639
1774159261425051600,6.3430517578125,0.6227023480642586,9.656158409759401,-1.5941209570348263
1774159261445044500,6.36304443359375,0.6132457337372005,9.652891516917943,-1.617400418074429
1774159261465037600,6.38303759765625,0.5965537978617474,9.653177348122,-1.6219422992877661
1774159261485030700,6.40303076171875,0.5724465807611122,9.655086396613717,-1.6192637277282773
1774159261505023500,6.4230234375,0.5408882439369336,9.655217914038897,-1.629294123355299
1774159261525016600,6.4430166015625,0.5020231642959639,9.653258596664667,-1.6531632208511233
1774159261545009700,6.463009765625,0.4688742703447118,9.651604984238743,-1.6724517125584184
1774159261565002800,6.483002685546875,0.4348388758825138,9.650629417204856,-1.6872107441425324
1774159261584995600,6.50299560546875,0.39903669094350186,9.650885437792539,-1.694569728603214
1774159261604988700,6.52298876953125,0.3367285571990534,9.653393621221184,-1.6938054662324487
1774159261624981800,6.542981689453125,0.2240014101474546,9.658599957692623,-1.6827543492555617
1774159261644974600,6.562974609375,0.045350523536978285,9.662759415459632,-1.6731394025616346
1774159261664967400,6.582967529296875,-0.18011689490927382,9.660347678142786,-1.6779796821996569
1774159261684960500,6.60296044921875,-0.37781628132555634,9.65579133001268,-1.671330745704472
1774159261704953300,6.622953369140625,-0.460365677457489,9.65366191676855,-1.6629095388397575
1774159261724946200,6.6429462890625,-0.45492045419625937,9.653894556480646,-1.663052892833203
1774159261744939300,6.662939208984375,-0.4372396168813109,9.657556586119531,-1.6464520327746868
1774159261764932400,6.682932373046875,-0.4514673546003177,9.660104517036675,-1.6275693453893065
1774159261784925200,6.70292529296875,-0.5256161482641473,9.654855510467291,-1.6364128693193196
1774159261804918300,6.722918212890625,-0.6119897057941183,9.649395491495728,-1.6385995657086372
1774159261824911400,6.742911376953125,-0.611330766961351,9.654158175852894,-1.6105572741813956
1774159261844904400,6.762904541015625,-0.5770123908393084,9.662658877694605,-1.5717811149328946
1774159261864897300,6.782897216796875,-0.5369547038802877,9.671274730348587,-1.5324905764214694
1774159261884890400,6.802890380859375,-0.46664603636860846,9.681018710249662,-1.4934952214643358
1774159261904883500,6.822883544921875,-0.3604520356791094,9.692434422755241,-1.4481588269174097
1774159261924876300,6.842876220703125,-0.2372797199208289,9.7027120711416,-1.404083684477955
1774159261944869400,6.862869384765625,-0.18312690864652395,9.711075994861126,-1.3534551748722792
1774159261964862500,6.882862548828125,-0.20718274261979386,9.721600896006821,-1.2719742847546935
1774159261984855300,6.902855224609375,-0.18496674609323963,9.731859255170821,-1.1946071866314858
1774159262004848000,6.92284814453125,-0.09892405535229482,9.739778942254185,-1.1389938012853265
1774159262024841200,6.94284130859375,-0.01351833478254848,9.744190913477539,-1.104967978369072
1774159262044834300,6.962834228515625,0.010269987953000236,9.746497436854243,-1.0844671151973306
1774159262064827400,6.982827392578125,0.012528920744755305,9.746792620408534,-1.0817807987228036
1774159262084820200,7.0028203125,0.022583635678992138,9.746462950062751,-1.0845973905134945
1774159262104813300,7.022813232421875,0.03529484048836166,9.74721289164722,-1.0774884352911263
1774159262124806400,7.042806396484375,0.0629999519335106,9.74909212952256,-1.059062551762536
1774159262144799200,7.06279931640625,0.09475928208935074,9.751582777294516,-1.0334579357109963
1774159262164792300,7.082792236328125,0.1171898894809652,9.753839616310596,-1.0096000171963124
1774159262184785400,7.102785400390625,0.13416494401358067,9.755086401501297,-0.9953227047145367
1774159262204778500,7.122778564453125,0.1288090064710006,9.75621686683595,-0.9848995834428816
1774159262224771300,7.142771240234375,0.07043739019157365,9.756215697792172,-0.9908042774420232
1774159262244764400,7.162764404296875,-0.028148962205532004,9.753847215095162,-1.0159002863842994
1774159262264757500,7.182757568359375,-0.07894720692150295,9.749933256521821,-1.0502234848119318
1774159262284750300,7.202750244140625,-0.07794762882436625,9.74694985679686,-1.077634931089729
1774159262304743200,7.2227431640625,-0.07650642160668503,9.744296711939572,-1.1014705647073686
1774159262324736300,7.242736328125,-0.07361405203288886,9.740246559765934,-1.1369105652704834
1774159262344729300,7.262729248046875,-0.07268650712550152,9.73486545124948,-1.1821623502738774
1774159262364723500,7.282723388671875,-0.07127065811136271,9.727399353152514,-1.242170390382409
1774159262384716300,7.30271630859375,-0.06815948555457871,9.718795190936326,-1.3079625668503343
1774159262404709400,7.32270947265625,-0.061572156753251325,9.708557290038465,-1.3822105831049383
1774159262424702500,7.342702392578125,-0.03087564037319971,9.695520698332786,-1.4718468687579034
1774159262444695300,7.3626953125,-0.01595475330785848,9.681182960900664,-1.5635972239553928
1774159262464688400,7.3826884765625,-0.02231222572593251,9.669154669454693,-1.6362468651026487
1774159262484681500,7.402681396484375,-0.04152701515948865,9.662384152406453,-1.6754136311039327
1774159262504674600,7.422674560546875,-0.06573765610198025,9.656751114955544,-1.706818677062541
1774159262524667100,7.442667236328125,-0.08206687331199645,9.651568159359693,-1.7351871318042278
1774159262544660200,7.46266015625,-0.08666267666965723,9.64741630037725,-1.7579017985679208
1774159262564653300,7.4826533203125,-0.09524925756338051,9.642261986353994,-1.7855264492049812
1774159262584646100,7.502646240234375,-0.1090019342496991,9.635260583159328,-1.8221604818582533
1774159262604639200,7.52263916015625,-0.11953365786182693,9.631594461867213,-1.8407855412207543
1774159262624632300,7.54263232421875,-0.10920347557063213,9.629794718968867,-1.8508122835859655
1774159262644625400,7.56262548828125,-0.09652647442496382,9.62710416471064,-1.865459233097732
1774159262664618200,7.5826181640625,-0.08492328565642238,9.623594110763072,-1.8840391381442545
1774159262684611300,7.602611328125,-0.07315142579008825,9.62117360561788,-1.8968515657052396
1774159262704604400,7.6226044921875,-0.07075657567596062,9.62063175382614,-1.8996961414813993
1774159262724598500,7.6425986328125,-0.058120153135852885,9.622263154420256,-1.8918430898934602
1774159262744591400,7.66259130859375,-0.01652738268870744,9.627500470551848,-1.865838733934611
1774159262764584200,7.682584228515625,0.055018218764872284,9.635001055440306,-1.8259572437927125
1774159262784577300,7.702577392578125,0.12925197359868323,9.6429756875813,-1.7795187332227824
1774159262804570400,7.7225703125,0.19175216844966633,9.65261737615168,-1.7206434965364634
1774159262824563200,7.742563232421875,0.25646940916245803,9.666770989188551,-1.6303814802005887
1774159262844556300,7.762556396484375,0.32427319944743066,9.680549339172243,-1.5336789094232022
1774159262864549400,7.78254931640625,0.39361291232910006,9.691645318204165,-1.4448020638354122
1774159262884542200,7.802542236328125,0.4623703318107873,9.69797510574758,-1.3805502486772834
1774159262904536300,7.822536376953125,0.5194655166799202,9.699594815903902,-1.3484909765936433
1774159262924529400,7.842529296875,0.5528770801553502,9.699489017441868,-1.3359024209164083
1774159262944522500,7.8625224609375,0.5546796725979074,9.699860773363708,-1.3324590024642646
1774159262964515300,7.882515380859375,0.5455677800552919,9.699013216623664,-1.3423469208806753
1774159262984508200,7.902508056640625,0.5358327506456524,9.697176064324378,-1.3594221204526722
1774159263004501200,7.922501220703125,0.5402513708055019,9.692949386540056,-1.3875285632573067
1774159263024494300,7.942494384765625,0.5413567747641355,9.687915484026075,-1.4218316687449812
1774159263044487200,7.962487060546875,0.5475695483317599,9.68258756700158,-1.4553475693777203
1774159263064480300,7.982480224609375,0.5608249338872731,9.6790441953063,-1.4737592782504856
1774159263084473300,8.002473388671875,0.5786567605128512,9.67848422333598,-1.4705458691619335
1774159263104466400,8.022466552734375,0.5937326760264113,9.679140056896209,-1.460179665709287
1774159263124459300,8.042459228515625,0.6024569574909284,9.680879009518026,-1.445007523279637
1774159263144452400,8.062452392578125,0.5954921234469861,9.683156891322135,-1.4325772269040344
1774159263164445400,8.082445556640625,0.576049427558668,9.6857773029536,-1.422777425162494
1774159263184438300,8.102438232421875,0.5558394370922819,9.68719476853609,-1.4211511391349136
1774159263204431400,8.122431396484375,0.5408591639729217,9.686101712602376,-1.4343166179172693
1774159263224424400,8.142424560546875,0.5351071032522245,9.681382867386937,-1.4679492767974733
1774159263244417500,8.16241748046875,0.536693495660834,9.676570498669147,-1.4987670243874192
1774159263264410400,8.182410400390625,0.5365838247412815,9.671546533027291,-1.5309002384901045
1774159263284403200,8.2024033203125,0.5277795368431135,9.66621627791524,-1.5672046007975935
1774159263304397300,8.222397216796875,0.5092706512061879,9.661038583016396,-1.6047854127816854
1774159263324390400,8.242390380859375,0.4835359059689566,9.656730072167516,-1.6383366769887506
1774159263344383200,8.26238330078125,0.45470443682540207,9.65398048119843,-1.6626188853301107
1774159263364376300,8.282376220703124,0.42826165291666984,9.651763389670847,-1.682394283771515
1774159263384369400,8.302369384765624,0.3951836687771603,9.650113868898153,-1.6998621359229087
1774159263404362500,8.322362548828124,0.37166981445979325,9.64858943580985,-1.713753152500838
1774159263424355300,8.342355224609374,0.35081502328384667,9.647501640573143,-1.7242460510730742
1774159263444348400,8.362348388671874,0.35780079051796343,9.642444357183575,-1.7508961575895547
1774159263464341500,8.382341552734376,0.37229678725171833,9.631330257973074,-1.8081126672834158
1774159263484334300,8.402334228515626,0.3786714003175497,9.618342181584238,-1.8746926331281661
1774159263504327400,8.422327392578126,0.38061285324152555,9.609515316528082,-1.9190454234652221
1774159263524320300,8.4423203125,0.389560422067903,9.60175988009572,-1.9557181806936859
1774159263544313300,8.462313232421875,0.4059860351573676,9.596067221412062,-1.980163616772741
1774159263564306200,8.48230615234375,0.4192288169596344,9.592870471197367,-1.9928470111265777
1774159263584299300,8.50229931640625,0.4281695541864261,9.593423428905009,-1.9882839409947395
1774159263604292400,8.522292236328125,0.4427284235559404,9.597455460900068,-1.965506438127905
1774159263624285200,8.54228515625,0.4641641198923811,9.60531903388202,-1.9216558982245624
1774159263644278300,8.5622783203125,0.49557322097159917,9.614214872521162,-1.8685997230805456
1774159263664272400,8.5822724609375,0.5470479356104507,9.61968073671162,-1.8256147139653562
1774159263684265500,8.602265380859375,0.6211709007132798,9.622080199068785,-1.7888805819384752
1774159263704258600,8.622258544921875,0.6988321594774722,9.623951838159561,-1.7497420191183686
1774159263724251000,8.6422509765625,0.7506389921475202,9.628281976318359,-1.7038512055590749
1774159263744244000,8.662243896484375,0.7859023940347135,9.627790977931022,-1.6906747669912874
1774159263764236800,8.68223681640625,0.8118694867230951,9.615409635263681,-1.747904282297194
1774159263784229600,8.702229736328125,0.8476622462466359,9.601154899939894,-1.808227087443322
1774159263804222700,8.72222265625,0.8850953203231096,9.595629999038577,-1.819580840628594
1774159263824215800,8.7422158203125,0.9133155987657606,9.5940927064687,-1.813721300945431
1774159263844208600,8.762208740234374,0.9094359808534384,9.594337621140479,-1.8143921859443186
1774159263864201700,8.78220166015625,0.8858416817110031,9.595493805438279,-1.8199417828954756
1774159263884194800,8.80219482421875,0.8288003824535757,9.596683892005682,-1.8404123239941894
1774159263904188000,8.82218798828125,0.768004260707274,9.59321709267795,-1.8843384133517742
1774159263924180700,8.8421806640625,0.7164628009751439,9.585780220675469,-1.9416230198457836
1774159263944173800,8.862173828125,0.6913210531949997,9.577616787964105,-1.9904108700208365
1774159263964167000,8.8821669921875,0.6945757441420107,9.570359364181757,-2.0238997365161775
1774159263984159700,8.90215966796875,0.7048354184802621,9.56290846365392,-2.055323779436201
1774159264004153900,8.92215380859375,0.7212984044380486,9.552271918827294,-2.098621653892845
1774159264024146700,8.942146728515626,0.7362566849213094,9.539663197144865,-2.1501488659039136
1774159264044139800,8.962139892578126,0.7397830324165523,9.52788566558957,-2.200563294367492
1774159264064132900,8.9821328125,0.7332786920238286,9.518712763574719,-2.2420571881420908
1774159264084125700,9.002125732421876,0.7184914572585374,9.511531912159919,-2.2770434535883366
1774159264104118800,9.022118896484375,0.6963923651099204,9.506341942301392,-2.305401094675064
1774159264124112000,9.04211181640625,0.67806482738927,9.500914072033762,-2.333075137411803
1774159264144104700,9.062104736328125,0.6541691341474651,9.496076568874717,-2.3594439427688716
1774159264164097800,9.082097900390625,0.6258342894144356,9.491217438405751,-2.3865320023111996
1774159264184091000,9.1020908203125,0.5965657440278679,9.485742221865058,-2.415617519281059
1774159264204084000,9.122083984375,0.5627763602159918,9.479931489759682,-2.446341304977238
1774159264224076800,9.142076904296875,0.5324643336584791,9.473248650994897,-2.4787968829020857
1774159264244070000,9.16206982421875,0.5073404868612066,9.468205396130681,-2.503212362234294
1774159264264063000,9.18206298828125,0.49042625000458206,9.46313233065009,-2.5256667706266045
1774159264284056800,9.202056884765625,0.48690552853252733,9.457321014022826,-2.548018010905385
1774159264304049700,9.222049560546875,0.47849385668113825,9.451168921133876,-2.572324184644222
1774159264324042800,9.242042724609375,0.4744012536052614,9.445375724685192,-2.59426129116416
1774159264344035800,9.262035888671875,0.47201023028288036,9.439144721341133,-2.617278301875293
1774159264364029000,9.28202880859375,0.4668819274837151,9.431947503313422,-2.6440067343249916
1774159264384021800,9.302021728515625,0.4680207587879151,9.426092932066322,-2.664605285717547
1774159264404014800,9.322014892578125,0.48586665047146377,9.424871281316875,-2.6657252296581864
1774159264424008000,9.342008056640625,0.5293959590638057,9.421800203308463,-2.668298002755642
1774159264444000800,9.362000732421874,0.5911922342959791,9.411309788954258,-2.6922341741383073
1774159264463993900,9.381993896484374,0.6607758389361202,9.400988885948061,-2.7120409906312823
1774159264483987000,9.401987060546874,0.7271296678747982,9.400739295101165,-2.69588509786129
1774159264503980000,9.42197998046875,0.7994341488461941,9.405277523052693,-2.659327053053677
1774159264523972900,9.441972900390626,0.8680994695976376,9.411111636033654,-2.616827635498345
1774159264543965700,9.461965576171876,0.9254777457244694,9.416811308979987,-2.576342188113928
1774159264563958800,9.481958740234376,0.9709209616467356,9.418917925870417,-2.5517995752707123
1774159264583953000,9.501952880859376,1.0123409864675252,9.417110584187506,-2.5423545783162114
1774159264603945700,9.52194580078125,1.0609025536060332,9.40632323271334,-2.5624092320904133
1774159264623938800,9.541938720703126,1.094678201153502,9.394338780409097,-2.5920012372776866
1774159264643932000,9.561931884765626,1.129409249729663,9.384402492806315,-2.6130083694711326
1774159264663925000,9.581925048828126,1.1686186858288943,9.375111517369747,-2.6290733690872785
1774159264683917800,9.601917724609375,1.2409236051917076,9.36251448612511,-2.640796540106833
1774159264703911000,9.621910888671875,1.3193306408219039,9.345803005298972,-2.6619007029339667
1774159264723903500,9.641903564453125,1.4018630858190357,9.316942236995697,-2.720245339874923
1774159264743896600,9.661896484375,1.4993011312641202,9.283803937503695,-2.7809125745445487
1774159264763889700,9.6818896484375,1.5723681210406124,9.263179667147993,-2.809190866784751
1774159264783882500,9.701882568359375,1.6003436309419572,9.25432883669436,-2.822535209265351
1774159264803875300,9.721875244140625,1.5983526032552122,9.252246769723296,-2.830478277224302
1774159264823869400,9.741869384765625,1.5787148597188294,9.250752147251367,-2.8463363560914994
1774159264843862500,9.761862548828125,1.5563155425146222,9.246860985031724,-2.871209808324277
1774159264863855400,9.78185546875,1.546377501346171,9.241014012569188,-2.895304677399993
1774159264883848400,9.801848388671875,1.5402102108880877,9.236076556167006,-2.9142884870722887
1774159264903841500,9.821841552734375,1.5314352221496403,9.232458365669846,-2.930327767725289
1774159264923834600,9.841834716796875,1.5202650088377296,9.22776991559267,-2.95084039440006
1774159264943827500,9.861827392578125,1.497228562773764,9.223222919812798,-2.9767195165440437
1774159264963820500,9.881820556640625,1.455880507210642,9.219829770243168,-3.007575550317764
1774159264983813600,9.901813720703124,1.4099277343310415,9.213716255798936,-3.047936202278733
1774159265003806500,9.921806396484374,1.361424546316266,9.206274123099446,-3.0921552832335233
1774159265023799300,9.94179931640625,1.310461982450634,9.203909147533773,-3.1210809334665535
1774159265043792400,9.96179248046875,1.2546816430397332,9.204049432787299,-3.143509330634773
1774159265063786500,9.981786376953124,1.216560878960043,9.204277396324276,-3.15779066170454
1774159265083779300,10.001779296875,1.1817807305451482,9.20723741517365,-3.162369221666455
1774159265103772400,10.0217724609375,1.17535727336891,9.204764303058385,-3.1719483663946386
1774159265123765500,10.041765625,1.1487729986302555,9.197187145802378,-3.2035034883484244
1774159265143758600,10.061758544921876,1.1190500605396925,9.188506411218643,-3.2387457743823527
1774159265163751400,10.08175146484375,1.1134382850725204,9.183950647610425,-3.2535704185485836
1774159265183744500,10.10174462890625,1.1413695174407212,9.180377465298772,-3.2539743231743574
1774159265203737600,10.121737548828126,1.1888724423717707,9.17938845426142,-3.239719003328681
1774159265223730700,10.141730712890626,1.2329324603073297,9.184002085536719,-3.2100434115111827
1774159265243723500,10.1617236328125,1.2588719343364239,9.193972859930991,-3.1711952099397775
1774159265263716400,10.18171630859375,1.2798830120526254,9.208878752639889,-3.119106418523192
1774159265283709400,10.20170947265625,1.3167093524076043,9.227107067769765,-3.049123950758576
1774159265303703600,10.22170361328125,1.377849611416459,9.24045170251131,-2.980936257456243
1774159265323696400,10.2416962890625,1.4376681203022599,9.244378520566224,-2.940235998277366
1774159265343689500,10.261689453125,1.4716796954974531,9.247936505308747,-2.912077825285494
1774159265363682600,10.2816826171875,1.4872534044653176,9.249656168708205,-2.8986735693112013
1774159265383675400,10.30167529296875,1.4982039836771786,9.249483150228857,-2.8935815068691966
1774159265403668500,10.32166845703125,1.5153339821763336,9.254053526884316,-2.8699527940005063
1774159265423661600,10.34166162109375,1.5186572813801467,9.268380158400536,-2.82155818092674
1774159265443654700,10.361654541015625,1.5026964727908372,9.28343978036642,-2.7802976575165985
1774159265463647500,10.3816474609375,1.4932273643083869,9.284348127382993,-2.7823586816996335
1774159265483640300,10.401640380859375,1.4934692102402447,9.28476430696845,-2.7808438932225106
1774159265503633400,10.42163330078125,1.476197611313313,9.303048151677846,-2.728462840861082
1774159265523627500,10.44162744140625,1.4527458624467253,9.312876887252926,-2.7074390497937797
1774159265543620400,10.461620361328125,1.4081255072146652,9.325954395490884,-2.6859219222515818
1774159265563613400,10.481613525390625,1.385377084311843,9.327537865290045,-2.692242357444763
1774159265583606500,10.5016064453125,1.380756000382453,9.31937852423191,-2.722694194331765
1774159265603599600,10.521599609375,1.39931866203323,9.309976489636302,-2.7452912260651585
1774159265623592400,10.541592529296874,1.4518947985753416,9.296768048495053,-2.7626959498524664
1774159265643585500,10.56158544921875,1.5262405761159956,9.28413126976192,-2.76512376152128
1774159265663578600,10.58157861328125,1.576056892555952,9.281077142888307,-2.747370370426774
1774159265683571500,10.601571533203124,1.571548767481744,9.283211232307552,-2.742737449929118
1774159265703564300,10.621564208984376,1.5756607328452168,9.28054698153436,-2.74939164712131
1774159265723558700,10.64155859375,1.5759451027445495,9.276088248559832,-2.764233534683287
1774159265743551700,10.6615517578125,1.5546733282655476,9.270185161995887,-2.795898839013278
1774159265763544800,10.681544921875,1.5180916103214024,9.268744315537809,-2.820670292176306
1774159265783537700,10.70153759765625,1.4710868441708385,9.275193930068612,-2.8243717770427463
1774159265803530800,10.72153076171875,1.4096965559236705,9.283639686852693,-2.827925085610151
1774159265823523800,10.74152392578125,1.349335464593768,9.288235782471299,-2.842244702863693
1774159265843516700,10.7615166015625,1.3026445866979657,9.295704803177713,-2.8396064633145928
1774159265863509800,10.781509765625,1.2681751847326754,9.299462109884619,-2.842901120945811
1774159265883502800,10.8015029296875,1.237583500983566,9.300727015253901,-2.852234181958437
1774159265903495700,10.82149560546875,1.2016723027121274,9.300794235271216,-2.8673393966317176
1774159265923489800,10.84148974609375,1.1525259944882242,9.307803821772337,-2.864762531881034
1774159265943482600,10.861482666015625,1.1389315497040748,9.304921544334292,-2.8795252167269587
1774159265963475700,10.881475830078125,1.1005786573689431,9.311510859596728,-2.8731320085585117
1774159265983468800,10.90146875,1.066327282068506,9.319280324554443,-2.86082606921494
1774159266003461600,10.921461669921875,1.0364236536487936,9.32540319134891,-2.8518545349910855
1774159266023454700,10.941454833984375,0.9989243824683129,9.332542541709541,-2.8418671017229555
1774159266043447800,10.96144775390625,0.9649532854139804,9.334035995137691,-2.8486887644365426
1774159266063441000,10.98144091796875,0.9472478981796651,9.327645417317747,-2.875437947413325
1774159266083433700,11.001433837890625,0.9629546589426696,9.317123438781499,-2.9041847339481115
1774159266103426800,11.0214267578125,0.9946885715294629,9.310087548795343,-2.9160306545644996
1774159266123420700,11.041420654296875,1.0261884561646728,9.31001389903724,-2.905337703375518
1774159266143413800,11.061413818359375,1.0637788396947085,9.310362274083495,-2.890656559333205
1774159266163406600,11.081406494140625,1.1008576935060321,9.307664121040702,-2.8854616210386155
1774159266183399700,11.101399658203125,1.1324740441277623,9.307401086190342,-2.874054384100437
1774159266203392800,11.121392822265625,1.1610949392605572,9.310207960304618,-2.8534663541018963
1774159266223385900,11.1413857421875,1.1830586415264754,9.314126595053077,-2.8315760093331335
1774159266243378700,11.161378662109374,1.2066928342878818,9.31488413542211,-2.8190806848973033
1774159266263371800,11.181371826171874,1.2262474295854568,9.311996597287058,-2.8201825086593626
1774159266283364900,11.20136474609375,1.2259446472465991,9.312228652477264,-2.819551517279446
1774159266303357700,11.221357666015624,1.2175816733751446,9.316511444362998,-2.809000604909658
1774159266323351600,11.2413515625,1.2106246938440948,9.322189489999413,-2.793132004648447
1774159266343344600,11.2613447265625,1.1805024542376399,9.336240811705588,-2.7588778528690336
1774159266363337700,11.281337646484374,1.1646113498836754,9.344962462821602,-2.7360128178492187
1774159266383330600,11.30133056640625,1.173882013184577,9.344229472371936,-2.734549759559333
1774159266403323600,11.32132373046875,1.1585636672172694,9.343333984836935,-2.744126566199958
1774159266423316700,11.341316650390626,1.138312321827188,9.338561948129534,-2.7687361067995426
1774159266443309800,11.361309814453126,1.1189429469034076,9.33099823487699,-2.801936073350906
1774159266463302700,11.381302734375,1.0904418787579984,9.32112975181341,-2.8456790612265466
1774159266483295700,11.401295654296876,1.062871004134789,9.313810953232645,-2.8798680388152595
1774159266503288800,11.421288818359375,1.0371919346075504,9.31264658562839,-2.892967174363136
1774159266523282700,11.44128271484375,1.0074933272406459,9.31533480179906,-2.894805787967145
1774159266543275500,11.461275634765625,0.9742615042462944,9.31896643629968,-2.894485762232542
1774159266563268600,11.4812685546875,0.9414268638759851,9.317968072912096,-2.9085353303730486
1774159266583261700,11.50126171875,0.9068627693645656,9.314037163203954,-2.932010898506641
1774159266603254800,11.5212548828125,0.8360555412136018,9.325435340052843,-2.9167881949335337
1774159266623247600,11.54124755859375,0.7958302791353314,9.329163420665264,-2.9161189173698423
1774159266643240700,11.56124072265625,0.7297983756273985,9.332586965373158,-2.922434968648851
1774159266663233800,11.58123388671875,0.667814651531726,9.336671019816398,-2.9242072390183806
1774159266683228000,11.601227783203125,0.613985519253835,9.34571415797174,-2.907064673298597
1774159266703220500,11.621220458984375,0.5564738625383004,9.355024422630667,-2.8886379129871727
1774159266723214000,11.641214111328125,0.50162948880326,9.36331820372343,-2.8717653963804244
1774159266743207200,11.661207275390625,0.45214368295930324,9.371649978739022,-2.852744469568133
1774159266763200000,11.681199951171875,0.41777171348650005,9.37806861360967,-2.8368428438201545
1774159266783193000,11.701193115234375,0.3974427728155628,9.379491339889169,-2.8350559604033827
1774159266803186200,11.721186279296875,0.3874929316114634,9.37946912805736,-2.8365111276477575
1774159266823179000,11.741178955078125,0.37859968678820877,9.383687038013338,-2.823732894617319
1774159266843172000,11.761172119140625,0.38140710889175533,9.39246889488399,-2.793995051218569
1774159266863166200,11.781166259765625,0.3913543562799692,9.405809437972307,-2.7473618948593734
1774159266883159000,11.801158935546875,0.4005780751666054,9.425361110660432,-2.6781530418157575
1774159266903152000,11.821152099609375,0.41724290383942425,9.446873854288459,-2.5986276696801185
1774159266923145000,11.84114501953125,0.4584632413696497,9.462682833316922,-2.533345634691417
1774159266943138000,11.861137939453124,0.5046388266870752,9.468552017611264,-2.502447807602584
1774159266963131100,11.881131103515624,0.5501478013219312,9.470006892594695,-2.4873028454408046
1774159266983124000,11.9011240234375,0.5978074511846527,9.470774369835853,-2.473352646021545
1774159267003117000,11.921116943359374,0.6593900106009095,9.470528286120295,-2.458594929611683
1774159267023110100,11.941110107421874,0.7131860443267971,9.471794945055246,-2.438612756551802
1774159267043104300,11.961104248046874,0.7532003670681268,9.47173181669116,-2.4268052682496606
1774159267063097000,11.98109716796875,0.7839506023798137,9.469858424034713,-2.424370734579116
1774159267083090200,12.001090087890624,0.7991914991967379,9.4673484870404,-2.429193916951865
1774159267103083000,12.0210830078125,0.8041169729001819,9.457897937127948,-2.464133859038353
1774159267123076000,12.041076171875,0.8189812914896756,9.443896884304284,-2.5124580372244116
1774159267143069000,12.06106884765625,0.840568342462927,9.434837379536033,-2.539228262989223
1774159267163062000,12.08106201171875,0.8824273432228714,9.431016944465041,-2.5392194951608777
1774159267183055000,12.10105517578125,0.8957802343361079,9.430316102719306,-2.5371421043649316
1774159267203049200,12.12104931640625,0.8742670523166656,9.430616546970604,-2.5435224530518052
1774159267223042000,12.1410419921875,0.8479420130360871,9.428700484216213,-2.559494805948436
1774159267243035100,12.16103515625,0.820712572261691,9.424223046541213,-2.5847335843622683
1774159267263028200,12.1810283203125,0.794861799429357,9.418383672863245,-2.6139339598834512
1774159267283021300,12.201021240234375,0.7672665210172533,9.414902845010161,-2.6346371406942604
1774159267303014100,12.22101416015625,0.7499334011614323,9.413969363552331,-2.642947872921824
1774159267323007200,12.24100732421875,0.7397142780292779,9.415455802717805,-2.6405340897783636
1774159267343001000,12.2610009765625,0.7307632020715623,9.418234619781375,-2.6330998481243846
1774159267362994200,12.280994140625,0.6971379227802157,9.420448204177617,-2.634296072171628
1774159267382987000,12.300987060546875,0.6769474407318979,9.419964220052957,-2.6412875384941694
1774159267402980000,12.32097998046875,0.6774616738643496,9.418142265322803,-2.6476509360462424
1774159267422973200,12.34097314453125,0.6840086843550205,9.416129756456613,-2.653116215714812
1774159267442966300,12.36096630859375,0.6997726551979779,9.412419796022773,-2.66215613899976
1774159267462959000,12.380958984375,0.7156677781399339,9.407050377944111,-2.6768700162678956
1774159267482952200,12.4009521484375,0.7480935454484074,9.401206912612915,-2.688504632221162
1774159267502946000,12.420946044921875,0.8007939659573138,9.396876774454116,-2.6884634234279394
1774159267522939100,12.440939208984375,0.8666438639618456,9.396408572420476,-2.669611131180823
1774159267542932000,12.460931884765625,0.9273607099268585,9.401167165124416,-2.6321938391953705
1774159267562925000,12.480925048828125,0.9793080470461398,9.40164238142073,-2.6115985026732087
1774159267582918100,12.500918212890625,1.0520251274064183,9.391538336035609,-2.6196646124899385
1774159267602911200,12.5209111328125,1.0942352066263556,9.386991340255737,-2.618669756233692
1774159267622904000,12.540904052734374,1.1133123206052928,9.378933121484517,-2.639422036883235
1774159267642897200,12.560897216796874,1.1214672777492551,9.368582407861947,-2.6725205888867376
1774159267662891300,12.580891357421875,1.114354815395549,9.361091175323724,-2.7015888624608517
1774159267682884000,12.600884033203124,1.0748885549910365,9.360081121498347,-2.721009894506633
1774159267702877000,12.620876953125,1.024553694569692,9.362837142208218,-2.730932153584063
1774159267722869800,12.640869873046874,0.9436802688259631,9.366609061962366,-2.747083077917993
1774159267742862600,12.660862548828124,0.8397509616654366,9.365600761702655,-2.784008494733274
1774159267762855700,12.680855712890626,0.7134668340295552,9.354284417918324,-2.8563395714506505
1774159267782848500,12.7008486328125,0.5894195986002684,9.34160964526236,-2.925291819384694
1774159267802841600,12.720841552734376,0.5390328983938321,9.33847719245553,-2.944943153055012
1774159267822835700,12.740835693359376,0.5242908910097555,9.35147403667271,-2.906106641921401
1774159267842828800,12.760828857421876,0.4639005735853687,9.371109295991063,-2.8526252271026373
1774159267862822000,12.78082177734375,0.36623259184192863,9.390961412930489,-2.801092316003144
1774159267882814700,12.800814697265626,0.2596526057758368,9.412159099259972,-2.7412051257953047
1774159267902807800,12.820807861328126,0.19816994480378924,9.437590477636457,-2.657635738965869
1774159267922801000,12.84080078125,0.1812310849625617,9.46680721977055,-2.552859605717659
1774159267942793700,12.860793701171875,0.20219627771042287,9.490656297391652,-2.461091130341589
1774159267962787600,12.88078759765625,0.21594361150134353,9.509830368939042,-2.384713993103802
1774159267982780700,12.90078076171875,0.2016867938183248,9.525807105749845,-2.3213583961330353
1774159268002773800,12.920773681640625,0.17722345675639808,9.538008415675163,-2.272748532873392
1774159268022766600,12.9407666015625,0.13612452624929136,9.547389992004632,-2.235884052465111
1774159268042759700,12.960759765625,0.08037497470229864,9.549736262869834,-2.2285556092731653
1774159268062752800,12.980752685546875,0.024378439824027008,9.546651156336068,-2.243044007222354
1774159268082745900,13.000745849609375,-0.022062714794138447,9.546046760702133,-2.2456413302391764
1774159268102739700,13.02073974609375,-0.07383054889435879,9.549430557921529,-2.2300983086705206
1774159268122732500,13.040732666015625,-0.1293167641968932,9.552200022634864,-2.2156642712570727
1774159268142725600,13.0607255859375,-0.19056988159622995,9.556466447907686,-2.1927166725203393
1774159268162718700,13.08071875,-0.25406812017438934,9.561414425703882,-2.164533072826266
1774159268182711600,13.100711669921875,-0.3205404791925102,9.56608183299303,-2.134883784493804
1774159268202704600,13.12070458984375,-0.39373569845855233,9.569888824060559,-2.1053661597169935
1774159268222697700,13.14069775390625,-0.4723456362497061,9.572946458065509,-2.0750838341780007
1774159268242691800,13.16069189453125,-0.5644034499611705,9.574843231597542,-2.0430914898507297
1774159268262684700,13.1806845703125,-0.6577332563698292,9.576032733643054,-2.009316207629442
1774159268282677800,13.200677734375,-0.7451980432026087,9.579420037993788,-1.9620865466818211
1774159268302670600,13.220670654296875,-0.835399561522901,9.584885317662359,-1.8980138874828814
1774159268322663700,13.24066357421875,-0.9422928330555558,9.589278584185243,-1.824342355941981
1774159268342656500,13.260656494140624,-1.0694358425430952,9.589102643096446,-1.7537968474671244
1774159268362649600,13.280649658203124,-1.2186418499525635,9.582733108064533,-1.6901294080682099
1774159268382643700,13.300643798828125,-1.3794680063985287,9.569972410690784,-1.6380141670361161
1774159268402636800,13.32063671875,-1.526371362888813,9.553266775083541,-1.604892964809388
1774159268422629600,13.340629638671874,-1.6736689793936907,9.531136191818117,-1.5895504342488944
1774159268442622700,13.360622802734374,-1.8158002991765736,9.503058682847023,-1.601603714005649
1774159268462615800,13.38061572265625,-1.9566506392382084,9.471815987843275,-1.620677978440374
1774159268482609000,13.40060888671875,-2.066310160613805,9.446201654115319,-1.634026850965619
1774159268502601700,13.420601806640626,-2.1375972812362014,9.43172655403912,-1.6259117874406277
1774159268522595600,13.440595703125,-2.1923091146327556,9.42316740000844,-1.6025275508522987
1774159268542588700,13.460588623046876,-2.2304183344051243,9.418142849844694,-1.579303181000799
1774159268562581800,13.480581787109376,-2.239613594382256,9.419982924753427,-1.5551248714253305
1774159268582574600,13.50057470703125,-2.200136301127076,9.433484795883297,-1.529425343631953
1774159268602567700,13.520567626953126,-2.0959189708054065,9.46175168994665,-1.500919233985245
1774159268622560800,13.540560791015626,-1.9543793333053587,9.49560485970974,-1.4779229738011956
1774159268642553900,13.560553955078126,-1.8116545776739716,9.525477435404062,-1.467510739249736
1774159268662547700,13.580547607421876,-1.6880686761461197,9.547685175558923,-1.4705517143808304
1774159268682540500,13.60054052734375,-1.5885351197265087,9.563666588544844,-1.4775690457969903
1774159268702533600,13.62053369140625,-1.5120518917657435,9.574180968296528,-1.4896785857856272
1774159268722527000,13.64052685546875,-1.4296991872496903,9.583374328577518,-1.5117172529838978
1774159268742519800,13.660519775390625,-1.3137429038174449,9.59430138078332,-1.54720898373425
1774159268762513000,13.680512939453125,-1.177612139623612,9.603633857274055,-1.59806764883399
1774159268782506000,13.700506103515625,-1.059095431118831,9.60660848917067,-1.6618579839602112
1774159268802500000,13.7205,-0.9661731095325201,9.60483621880114,-1.7274321337632834
1774159268822493000,13.740492919921875,-0.896218698818609,9.602339141288398,-1.7782788161642848
1774159268842486000,13.760486083984375,-0.8532252141360193,9.604100890263915,-1.7898671087577938
1774159268862478800,13.780478759765625,-0.8660731514018029,9.608542087581753,-1.7596131325304507
1774159268882472000,13.800471923828125,-0.9331528834622352,9.611837621995805,-1.7065179405502975
1774159268902464800,13.82046484375,-0.9901663448646664,9.614243514093756,-1.660208609317988
1774159268922459000,13.840458984375,-0.9930941419448703,9.623237552410364,-1.605450306431204
1774159268942452000,13.860451904296875,-0.9517078001979737,9.640229603743553,-1.5266373203486203
1774159268962445000,13.880445068359375,-0.8899225943490863,9.659092709645629,-1.4423356737218795
1774159268982438000,13.90043798828125,-0.8457459642965346,9.672817283615469,-1.3753944733493029
1774159269002431000,13.920430908203125,-0.8611980196461081,9.681374684080481,-1.303730774499476
1774159269022424000,13.940424072265625,-0.9219353238772601,9.686457686433195,-1.221869945153594
1774159269042417200,13.960417236328125,-0.9918488911241292,9.687387660759686,-1.1580782217878847
1774159269062410800,13.98041064453125,-1.0513299116838724,9.685875502631067,-1.1175441860213875
1774159269082403800,14.00040380859375,-1.1119646323233843,9.681260702311992,-1.0986802033364773
1774159269102397000,14.02039697265625,-1.1734080389972776,9.674186818403005,-1.097087965708971
1774159269122390000,14.04039013671875,-1.2125018858928234,9.669386724644898,-1.096900480312854
1774159269142382800,14.0603828125,-1.2258140796694903,9.67076561178267,-1.069611856697127
1774159269162376000,14.0803759765625,-1.2179009684573858,9.678681791734695,-1.005091307600215
1774159269182370000,14.1003701171875,-1.2063725893575696,9.686678635707498,-0.939856838080287
1774159269202363100,14.120363037109374,-1.19048930298388,9.692480599984526,-0.8994049276392906
1774159269222356000,14.14035595703125,-1.1773034390006214,9.695178753027319,-0.8876197242341936
1774159269242348800,14.160348876953124,-1.1568656311277299,9.6977301910758,-0.8866122276920825
1774159269262342000,14.180341796875,-1.1126233154278249,9.702435007765889,-0.8917431608397514
1774159269282335000,14.2003349609375,-1.0271411537796258,9.710923434647917,-0.901843187636882
1774159269302327800,14.220327880859376,-0.9053877283759415,9.723445647090672,-0.8973642155919224
1774159269322322000,14.240322021484374,-0.8125577612482011,9.735087569567561,-0.8591892371069639
1774159269342315000,14.26031494140625,-0.7718894315775483,9.743773564848302,-0.795894576543197
1774159269362308000,14.28030810546875,-0.7542967109374702,9.748605807310343,-0.7523790407478809
1774159269382301000,14.300301025390626,-0.7372510297209024,9.748660752367973,-0.76841043035537
1774159269402294000,14.3202939453125,-0.7069192390169948,9.747857619291544,-0.8061773394960909
1774159269422287000,14.340287109375,-0.6685580903101712,9.745523623386024,-0.8649755654234439
1774159269442281000,14.360281005859376,-0.6403481140658259,9.738162739229201,-0.9636006286960095
1774159269462273800,14.380273681640626,-0.6548281825780868,9.724124861526489,-1.0876618195854126
1774159269482267000,14.400266845703126,-0.7401346953984349,9.705396195659041,-1.1949307194974272
1774159269502260000,14.420260009765625,-0.8766836850043386,9.679038934609293,-1.310727793779969
1774159269522253000,14.440253173828125,-0.9961511183626949,9.64471230211556,-1.4688764746449887
1774159269542246000,14.460245849609375,-1.0628523724995553,9.607089550685883,-1.6566683063626289
1774159269562240000,14.480239990234375,-1.0871172643799334,9.57344680880308,-1.8269295959562062
1774159269582232800,14.50023291015625,-1.0626866605438292,9.546862168738246,-1.9744662819139658
1774159269602226000,14.520225830078125,-1.0125351938653737,9.522231585350632,-2.1147736011400817
1774159269622218800,14.54021875,-0.9729170308347791,9.498916176214813,-2.234817592277378
1774159269642211800,14.5602119140625,-0.9343060720853507,9.474182716974616,-2.353155656279623
1774159269662205000,14.580204833984375,-0.9010480186711997,9.446122743660212,-2.475737495331466
1774159269682198000,14.600197998046875,-0.8815897964201868,9.415008058950304,-2.5982342864483594
1774159269702192000,14.620192138671875,-0.8604532656934112,9.383885190933942,-2.71527164311558
1774159269722185200,14.640185302734375,-0.8387730565439909,9.352940017572045,-2.8265485365599394
1774159269742178000,14.660177978515625,-0.8189579106140882,9.320064168408512,-2.9387247169315813
1774159269762171100,14.680171142578125,-0.7908584820721298,9.285690774163603,-3.0530098522812126
1774159269782164200,14.700164306640625,-0.7571366836037486,9.252439661946893,-3.1606121488660572
1774159269802157000,14.720156982421875,-0.7221458150476217,9.22344503813088,-3.2522228033319114
1774159269822151200,14.740151123046875,-0.6882556742750108,9.199006177923083,-3.3279081589132544
1774159269842144000,14.76014404296875,-0.6607873101782054,9.180196263512968,-3.3849308996006844
1774159269862137000,14.78013720703125,-0.6558294685751199,9.167650670194625,-3.419716381777823
1774159269882130200,14.800130126953125,-0.6805526256170124,9.163758338931203,-3.4253152246981857
1774159269902123000,14.820123046875,-0.7077965333081782,9.168408795085549,-3.407302013623714
1774159269922116000,14.8401162109375,-0.7308909931696951,9.178990394854544,-3.373770038639009
1774159269942110000,14.86010986328125,-0.733175231649354,9.200561006149648,-3.3139895236760375
1774159269962103000,14.88010302734375,-0.7359895584177225,9.232433815750479,-3.22348595366925
1774159269982096000,14.900095947265624,-0.741144603093341,9.273715089687704,-3.1014997424229978
1774159270002089000,14.9200888671875,-0.7560883435945958,9.31965734117329,-2.9568042712405322
1774159270022082000,14.94008203125,-0.7785833031930028,9.364658512416481,-2.8048814791530368
1774159270042075100,14.9600751953125,-0.8165344828594475,9.404583695569634,-2.656589737044275
1774159270062069200,14.9800693359375,-0.8751439812816679,9.437095972117781,-2.5190707333624363
1774159270082062000,15.00006201171875,-0.9305222426977008,9.463549094757438,-2.3970354222774506
1774159270102055200,15.02005517578125,-0.9653209496825933,9.48715325770676,-2.2874596336625515
1774159270122048300,15.04004833984375,-0.9857580269031226,9.512219309902191,-2.1717143626324833
1774159270142041000,15.060041015625,-1.0251922116689383,9.53648398258686,-2.043244050063938
1774159270162034000,15.080033935546876,-1.0985523391731082,9.557291792815922,-1.9030922136604784
1774159270182028000,15.100028076171874,-1.1558681445229797,9.576928805699945,-1.7654431538581847
1774159270202021000,15.120021240234376,-1.1630945155799388,9.597355507656932,-1.645715681324154
1774159270222014200,15.14001416015625,-1.1728487246140837,9.615229017999768,-1.5304219534538686
1774159270242007000,15.160007080078126,-1.2085812783829868,9.627797992193699,-1.419584766601026
1774159270262000000,15.180000244140626,-1.229098435102403,9.640164137291908,-1.3141301495693622
1774159270281993200,15.1999931640625,-1.2268680457018315,9.654586045876146,-1.2058800566002725
1774159270301987000,15.219987060546876,-1.2518969807572662,9.666710783433913,-1.076029322523996
1774159270321980000,15.23997998046875,-1.3215521162636577,9.668530400076508,-0.9712854841101914
1774159270341973000,15.259972900390625,-1.386070327273011,9.664251115322113,-0.9227522662833333
1774159270361966000,15.279966064453125,-1.4397691842347382,9.65722457768619,-0.9140245507527143
1774159270381959000,15.299958984375,-1.4868446775339543,9.649788290205597,-0.9172079300291835
1774159270401952000,15.319951904296875,-1.5179589238524436,9.645190441021322,-0.9146004509445279
1774159270421946000,15.339946044921875,-1.540945393294841,9.642669398111105,-0.9026656830009072
1774159270441939200,15.359939208984375,-1.5511128593049943,9.643130001360177,-0.8800514078717678
1774159270461932300,15.379932373046875,-1.5402511274203656,9.647453709778189,-0.8512658967617899
1774159270481925000,15.399925048828125,-1.5264210472494364,9.652403441140056,-0.8194789388135075
1774159270501918000,15.41991796875,-1.528334333524853,9.653800448456407,-0.7991897456310689
1774159270521912000,15.439912109375,-1.4935226939931512,9.65877239165008,-0.8049200329113751
1774159270541905200,15.4599052734375,-1.408608176165074,9.669154084932803,-0.8328799068521707
1774159270561898000,15.47989794921875,-1.330962334165722,9.675328974175452,-0.8870881746407597
1774159270581891000,15.49989111328125,-1.2532459111481904,9.678147538727522,-0.9660445147167891
1774159270601884200,15.51988427734375,-1.1988356910467146,9.677545481181145,-1.0384074478771537
1774159270621877200,15.539877197265625,-1.1731547948885708,9.672341482797265,-1.1135085738297552
1774159270641870800,15.559870849609375,-1.126930949982628,9.667250297138095,-1.2019575493942944
1774159270661864000,15.579864013671875,-1.042593062998727,9.664296123507619,-1.2979847781933844
1774159270681857000,15.59985693359375,-0.9872677738789468,9.655655136412381,-1.4014388690575956
1774159270701850000,15.61985009765625,-1.0199938393082468,9.637290627682209,-1.500873787408322
1774159270721843200,15.63984326171875,-1.1254778285648672,9.614071664658189,-1.572684055121988
1774159270741836300,15.659836181640625,-1.2550329406954348,9.586579846620559,-1.640962057056278
1774159270761830400,15.679830322265625,-1.3425336756244302,9.559111409458518,-1.729562716051191
1774159270781823500,15.699823486328125,-1.33641183174327,9.540824057617783,-1.8322290175385771
1774159270801816300,15.71981640625,-1.2445597697369755,9.53840822864771,-1.9079365849517285
1774159270821809400,15.739809326171875,-1.1356200140032917,9.540622982087731,-1.9639953029125927
1774159270841802200,15.75980224609375,-1.024341586188972,9.537345567852258,-2.039642810701579
1774159270861795300,15.77979541015625,-0.9312065717000514,9.524704697465896,-2.1408498532913622
1774159270881789200,15.7997890625,-0.8560762927182018,9.50990460321903,-2.235892089641094
1774159270901782300,15.8197822265625,-0.778165735368058,9.497328030240535,-2.3163816306337712
1774159270921775400,15.839775390625,-0.7165378389727324,9.48650093127787,-2.379762800437212
1774159270941768400,15.8597685546875,-0.686928371194005,9.476182950881123,-2.429089433664083
1774159270961761300,15.87976123046875,-0.6863502790451049,9.466666349995135,-2.4660811937138436
1774159270981755100,15.899755126953124,-0.6972632296603173,9.46031785775125,-2.4872841407403348
1774159271001748200,15.919748291015624,-0.6850813550878315,9.462565344417095,-2.4821169672355055
1774159271021741300,15.9397412109375,-0.655933805732429,9.473720360159874,-2.447190761413425
1774159271041734100,15.959734130859376,-0.639589185457304,9.488201889976859,-2.3948538404546675
1774159271061727200,15.979727294921876,-0.641319224120304,9.503258004811405,-2.3339188947595653
1774159271081720300,15.99972021484375,-0.6625782852482051,9.516543018320203,-2.2730578910835084
1774159271101714400,16.01971435546875,-0.687071140665561,9.529379119017719,-2.2111671059682965
1774159271121707500,16.03970751953125,-0.6892959040429443,9.548905657264589,-2.124543592265248
1774159271141700400,16.059700439453124,-0.6517183799944818,9.573439794540406,-2.02358307178244
1774159271161693400,16.079693359375,-0.5716633214289322,9.597807927599549,-1.9301972243376075
1774159271181686500,16.0996865234375,-0.4755614564910531,9.620739305853844,-1.8399986286267638
1774159271201680400,16.119680419921874,-0.42323176899068055,9.641005848813057,-1.7442080581277608
1774159271221673200,16.139673095703124,-0.44186961476951836,9.657939447957277,-1.642972520095855
1774159271241666300,16.159666259765626,-0.4938076726038009,9.669950788268446,-1.5551754325687885
1774159271261659400,16.179659423828124,-0.5605282890282571,9.67628583650887,-1.4918817949183285
1774159271281652200,16.19965234375,-0.6423680755861103,9.67721639535725,-1.4523298289917408
1774159271301645300,16.219645263671875,-0.7282863636292517,9.673942488253116,-1.4334636543497443
1774159271321639400,16.239639404296874,-0.8038882787108421,9.670123222225904,-1.4187507999949156
1774159271341632300,16.25963232421875,-0.8620685188703239,9.669529347985982,-1.3883277508109808
1774159271361625300,16.279625244140625,-0.9093342740446329,9.672435590821504,-1.3369731188878415
1774159271381618200,16.2996181640625,-0.9569619213338941,9.67717898595631,-1.267598992279917
1774159271401611300,16.319611328125,-1.0150135666776448,9.68184113254845,-1.1840886421613395
1774159271421605400,16.33960546875,-1.07445308618322,9.68594798334539,-1.0946940563097596
1774159271441598500,16.359598388671873,-1.119590889418125,9.689698275789619,-1.0132410771124065
1774159271461591300,16.37959130859375,-1.155457517895475,9.692237438878417,-0.9464830512870103
1774159271481584400,16.39958447265625,-1.1859431109216063,9.6938705930382,-0.8904019753638654
1774159271501577500,16.419577392578127,-1.208652736184001,9.695892454254627,-0.8361795329194516
1774159271521570600,16.439570556640625,-1.2347663977362215,9.696865683200954,-0.7851828475885093
1774159271541564200,16.459564208984375,-1.2762034467570482,9.694789461448789,-0.7434777952812611
1774159271561557200,16.47955712890625,-1.3152270048953592,9.691731242921948,-0.7147804739113897
1774159271581550300,16.49955029296875,-1.3197683015868067,9.692523854604364,-0.6953809230450541
1774159271601543400,16.51954345703125,-1.304785398118943,9.695976040884851,-0.6752539346870035
1774159271621536300,16.539536376953127,-1.2996889517627657,9.698152800402045,-0.6534693153150379
1774159271641530400,16.5595302734375,-1.2963212288953363,9.699687170362472,-0.6372022903207689
1774159271661523500,16.5795234375,-1.2699392717957496,9.703262106239794,-0.6358914269179106
1774159271681516300,16.599516357421876,-1.2017192836590112,9.710964351180195,-0.6507000697974116
1774159271701509000,16.619509033203126,-1.081460042335838,9.72268693767786,-0.6856916690059006
1774159271721501700,16.639501708984376,-0.9573875263348222,9.732174312469363,-0.7338951434217393
1774159271741494500,16.65949462890625,-0.8742473247028887,9.736429631826281,-0.7797470132101326
1774159271761488600,16.679488525390624,-0.8032583102442323,9.739496033659577,-0.816934222766757
1774159271781481500,16.6994814453125,-0.74987231862396,9.74271850283742,-0.8291852901179343
1774159271801474600,16.719474609375,-0.7290100747939199,9.743769473195075,-0.8354092061340809
1774159271821467600,16.739467529296874,-0.7374263132225721,9.741872699663043,-0.8500144353959709
1774159271841460500,16.75946044921875,-0.7529906698402017,9.73756944951117,-0.8849373532824217
1774159271861454600,16.77945458984375,-0.7642731113549321,9.729722243142128,-0.9585184300608932
1774159271881447700,16.79944775390625,-0.7979463214412331,9.71569137970209,-1.0672376749116927
1774159271901440500,16.8194404296875,-0.8530352445218712,9.697157944145799,-1.186529678637907
1774159271921433600,16.83943359375,-0.8812555960297584,9.67986486403942,-1.3015281498886644
1774159271941426400,16.859426513671874,-0.8342760373856872,9.670810035446285,-1.3963565973572432
1774159271961420500,16.879420654296876,-0.7443490982230753,9.668669516286254,-1.460542215411365
1774159271981413600,16.89941357421875,-0.6556793195147067,9.668465518146753,-1.503746127974242
1774159272001406700,16.91940673828125,-0.5779900036998092,9.666769820144772,-1.5459217204026876
1774159272021399600,16.939399658203126,-0.5234565956100821,9.66313643207848,-1.587507237983495
1774159272041392600,16.959392578125,-0.4941908997677266,9.656678634241223,-1.6354565915077923
1774159272061385700,16.9793857421875,-0.47557007818892594,9.648687635487317,-1.6873256026938557
1774159272081379600,16.999379638671876,-0.45855055432692166,9.639471478852629,-1.7437608988821505
1774159272101372400,17.019372314453125,-0.44123117073550816,9.628003743898867,-1.810316314807534
1774159272121365500,17.039365478515624,-0.41340646748170257,9.61401087438166,-1.8895181540772317
1774159272141358600,17.059358642578125,-0.3876427884109318,9.597534955877066,-1.9767317426279185
1774159272161351700,17.0793515625,-0.3780006614491343,9.577600421351194,-2.072941123060882
1774159272181345500,17.099345458984374,-0.37407811771053817,9.55543476677239,-2.173498615700751
1774159272201338600,17.119338623046875,-0.3706217667115852,9.53527343775332,-2.260878792989999
1774159272221331700,17.139331787109374,-0.3806907773159444,9.520307923811673,-2.321465071377903
1774159272241324500,17.159324462890623,-0.39118674462810155,9.512047460466622,-2.353362723159045
1774159272261317400,17.1793173828125,-0.39127774737980214,9.510273436531424,-2.360509818434715
1774159272281311500,17.1993115234375,-0.3825350169431418,9.512744210559129,-2.3519655697122217
1774159272301304600,17.2193046875,-0.3624290348405018,9.519684238955378,-2.3269361962653696
1774159272321297700,17.239297607421875,-0.323850845849514,9.533248653927444,-2.276549094200134
1774159272341290500,17.25929052734375,-0.28872942798258733,9.554935000556707,-2.188664766781032
1774159272361283600,17.27928369140625,-0.258076460766606,9.580595511513948,-2.077494110190123
1774159272381276700,17.299276611328125,-0.22789396060658618,9.60487421272397,-1.965923348365724
1774159272401270500,17.3192705078125,-0.20685464317658914,9.626990767464042,-1.8570516163669526
1774159272421263400,17.339263427734377,-0.21590729807894676,9.646924132946133,-1.7494710932224988
1774159272441256400,17.35925634765625,-0.2594771944100037,9.662755908328295,-1.65353775325194
1774159272461249500,17.37924951171875,-0.31483737218007446,9.673439214906097,-1.579816537350416
1774159272481242600,17.39924267578125,-0.3645143532145768,9.680916418918967,-1.5222829245314
1774159272501236700,17.41923681640625,-0.41604664325956253,9.688208914014696,-1.4614640064314006
1774159272521229600,17.4392294921875,-0.48345999118853356,9.696382283598185,-1.3844935794755815
1774159272541222700,17.45922265625,-0.5876445882843807,9.698817401790619,-1.3258951139040291
1774159272561215700,17.4792158203125,-0.6981503877583891,9.695203887468576,-1.2984592638373373
1774159272581208600,17.49920849609375,-0.796228338542208,9.688326987436414,-1.2933365139961241
1774159272601202400,17.519202392578126,-0.8882588989205658,9.679519996124505,-1.2993413073688744
1774159272621195500,17.539195556640625,-0.987353114074841,9.67009458065331,-1.2979910618036985
1774159272641188600,17.559188720703126,-1.0877931178148836,9.661729487890005,-1.279880089443177
1774159272661181700,17.579181640625,-1.1658001943420617,9.65694459170103,-1.2468782758124173
1774159272681174500,17.599174560546874,-1.2271020005881785,9.654424133312702,-1.2069433749828486
1774159272701168600,17.619168701171876,-1.2870306918501853,9.652308748593926,-1.160543150596693
1774159272721162000,17.639161865234374,-1.3322041509203613,9.65190952014327,-1.1118611719489098
1774159272741155000,17.659155029296876,-1.3590256684809923,9.653172671946882,-1.0675639842566103
1774159272761148000,17.67914794921875,-1.3775776626072824,9.65435282164216,-1.0325287651021033
1774159272781141000,17.69914111328125,-1.3924734723135828,9.654869538992642,-1.007411640306562
1774159272801135000,17.719135009765626,-1.4043487651549278,9.655008070680498,-0.9894462138965725
1774159272821128200,17.739128173828124,-1.4003681710861622,9.657882749333977,-0.9667927027355879
1774159272841121000,17.75912109375,-1.3900902304388583,9.662346743005514,-0.9365354385726153
1774159272861114000,17.779114013671876,-1.386259858495742,9.665558690789341,-0.9086446843452751
1774159272881107200,17.799107177734374,-1.3803455198854206,9.668291915145517,-0.8883489152915776
1774159272901100000,17.81910009765625,-1.3477213073953986,9.674711134538054,-0.868340146485716
1774159272921094100,17.83909423828125,-1.2848754135124385,9.684799397832155,-0.8509801386229693
1774159272941087000,17.8590869140625,-1.21790242976211,9.694279173839092,-0.8414742052614689
1774159272961080000,17.879080078125,-1.1327050033394246,9.705330729207397,-0.8330276447597891
1774159272981073200,17.8990732421875,-1.0641003997992724,9.714776602944731,-0.8131435252469033
1774159273001066000,17.91906591796875,-1.0514778687871993,9.715707746315001,-0.8184232922807335
1774159273021060000,17.93906005859375,-1.0820776627775281,9.709227152124047,-0.8546343502815812
1774159273041053200,17.95905322265625,-1.104825501158461,9.7022076287508,-0.9038360419545323
1774159273061046000,17.9790458984375,-1.100270541267842,9.69534651080966,-0.9798083977837115
1774159273081039000,17.9990390625,-1.0922802731662988,9.689175713220239,-1.047462787926942
1774159273101032000,18.019031982421875,-1.1043027193933725,9.681087683832645,-1.1079111191488802
1774159273121026000,18.039026123046874,-1.1221142704159022,9.673995095223187,-1.1511173697993158
1774159273141019100,18.05901904296875,-1.1075317644424736,9.673242231029272,-1.1713812824100256
1774159273161012200,18.07901220703125,-1.0603152552373707,9.67720002874434,-1.1823388028193265
1774159273181005000,18.099005126953124,-1.0150568943627178,9.680076460963488,-1.1984055560011415
1774159273200998100,18.118998046875,-0.9930454804975539,9.677686935478448,-1.2355750837706028
1774159273220992000,18.138991943359375,-0.9912972485907375,9.668438630139827,-1.3072998651579022
1774159273240985000,18.158985107421874,-0.9871475085001439,9.654939097097515,-1.4064423764333127
1774159273260978000,18.17897802734375,-0.9814196323726325,9.639484338334203,-1.512461057088524
1774159273280971000,18.198970947265625,-0.9782336958128959,9.625644029030203,-1.60012838075608
1774159273300964000,18.218964111328123,-0.9772793176975101,9.613978141155838,-1.6693489242374897
1774159273320958200,18.238958251953125,-0.9875485635817051,9.600269349277019,-1.7406784226968883
1774159273340951000,18.258950927734375,-1.005300274175778,9.582201193144916,-1.827891572856158
1774159273360944000,18.278944091796873,-1.0187270342428236,9.562197685036063,-1.922745008635521
1774159273380937200,18.298937255859375,-1.037315122595802,9.541995439484715,-2.011135678141564
1774159273400930000,18.318929931640625,-1.0558686510920523,9.521965043368935,-2.0946869447924197
1774159273420924200,18.338924072265623,-1.0448452989049255,9.506175353562831,-2.1705593473784623
1774159273440917000,18.3589169921875,-1.0176322247434406,9.49545522210598,-2.229606725761294
1774159273460910000,18.37891015625,-0.9892490108240395,9.486404485166073,-2.2803309508264062
1774159273480903200,18.398903076171877,-0.9850493671771139,9.474648580920695,-2.3304745995245875
1774159273500896000,18.41889599609375,-0.9909672859840094,9.46169908297658,-2.3800408867262304
1774159273520890000,18.43889013671875,-0.9797399356573819,9.457731348389387,-2.4003771339207884
1774159273540883000,18.458883056640627,-0.9792474029000848,9.468235206747055,-2.358812220736593
1774159273560876000,18.4788759765625,-0.9350297101847826,9.492254380238055,-2.2788648237966
1774159273580868900,18.498868896484375,-0.8454489541113376,9.523786413577199,-2.1801561738938093
1774159273600862000,18.518862060546876,-0.7673733423925936,9.558249824193119,-2.0545945883788166
1774159273620856000,18.53885595703125,-0.735805360957235,9.587066168832779,-1.9279871470727026
1774159273640849200,18.55884912109375,-0.7535960883874445,9.60714975644052,-1.8180043850921093
1774159273660842200,18.57884228515625,-0.7735189324755222,9.625919338840246,-1.7069633462302385
1774159273680835000,18.5988349609375,-0.7780845598906279,9.644457450571656,-1.5966896384790539
1774159273700828200,18.618828125,-0.8120767727982252,9.658946579173207,-1.4885120262242852
1774159273720821500,18.638821533203124,-0.9078545568808912,9.664706457874178,-1.39269778258875
1774159273740814300,18.658814453125,-1.0169660889849066,9.664623455765843,-1.3157567278578877
1774159273760807400,18.678807373046876,-1.0679296757638455,9.664736853012442,-1.2738926855966448
1774159273780800300,18.69880029296875,-1.0863885117139667,9.664525840610265,-1.2597998628363012
1774159273800793300,18.71879345703125,-1.137060129809007,9.661936408638953,-1.2346991777189076
1774159273820787500,18.738787353515626,-1.2282248671382665,9.655346508854628,-1.1983896277796477
1774159273840780500,18.758780517578124,-1.3260142102390526,9.647647186523676,-1.1554068106215447
1774159273860773600,18.778773681640626,-1.4071438027009366,9.641870941209792,-1.1066447524748741
1774159273880766500,18.798766357421876,-1.4630483530133962,9.63976900049448,-1.051061908397451
1774159273900759600,18.818759521484374,-1.5065204149931668,9.639112582412361,-0.9941329104080796
1774159273920753400,18.83875341796875,-1.5390712699860334,9.639493106162547,-0.9390539972648024
1774159273940746500,18.85874658203125,-1.550431745173037,9.642544310426711,-0.8876361639123409
1774159273960739300,18.8787392578125,-1.5439325924120844,9.647997899657486,-0.8383286737773566
1774159273980732400,18.898732421875,-1.5311410615086554,9.654265143358707,-0.7881405283503234
1774159274000725500,18.9187255859375,-1.5110434453755617,9.661247257331013,-0.7399046860348433
1774159274020719600,18.9387197265625,-1.4817682510524988,9.668604634356498,-0.7020294942140579
1774159274040712400,18.95871240234375,-1.439325824381411,9.676505616739393,-0.6811421890079975
1774159274060705500,18.97870556640625,-1.39441817664057,9.683097854611278,-0.6808932557482272
1774159274080698400,18.998698486328124,-1.3548502824924886,9.688115975034236,-0.6893293679211289
1774159274100691500,19.01869140625,-1.2804286632366477,9.698640876179933,-0.6835561182819306
1774159274120685300,19.038685302734375,-1.128070840732753,9.718402976748347,-0.6712011521648615
1774159274140678400,19.058678466796874,-0.9108820149432867,9.740452895992993,-0.6813694949578494
1774159274160671500,19.07867138671875,-0.7111588493481278,9.756476979076862,-0.6897887290611863
1774159274180664600,19.09866455078125,-0.6125761639125645,9.766147893741726,-0.6461271358586848
1774159274200657400,19.118657470703123,-0.5558193441523239,9.772959911844135,-0.5921898670312017
1774159274220651300,19.1386513671875,-0.47088341821003704,9.779797064387798,-0.5515852137139067
1774159274240644400,19.158644287109375,-0.3547107155481353,9.78583576003015,-0.5310337893987074
1774159274260637400,19.178637451171873,-0.30942605118844657,9.786913618394731,-0.5394406024118885
1774159274280630300,19.19863037109375,-0.3859672564141452,9.781669872522354,-0.5833866385789588
1774159274300624400,19.218624267578125,-0.537370335476473,9.770675015777348,-0.6446062829669564
1774159274320617500,19.238617431640623,-0.7005963196057826,9.7556416972965,-0.7120355591174214
1774159274340610600,19.258610595703125,-0.827280771670863,9.740147775566577,-0.7845423577278852
1774159274360603400,19.278603271484375,-0.8940728458963334,9.727987382173538,-0.858637521508336
1774159274380596500,19.298596435546877,-0.9151889183569699,9.718204239305853,-0.9430508118160068
1774159274400590300,19.31859033203125,-0.9163527014393359,9.710689041370152,-1.0164670534215867
1774159274420583400,19.33858349609375,-0.8918473518665879,9.709149995234608,-1.0523303208980708
1774159274440576500,19.358576416015627,-0.8294318122249096,9.712692197886108,-1.0705367164570838
1774159274460569300,19.3785693359375,-0.7465645823154599,9.717492876166105,-1.0878198596913367
1774159274480562400,19.3985625,-0.6719362615063786,9.720714760822057,-1.1075210238527506
1774159274500556500,19.418556640625,-0.6319839711505919,9.719231244266032,-1.1434781070925295
1774159274520549600,19.438549560546875,-0.6150700265549123,9.712088971295952,-1.2113621412731705
1774159274540542500,19.45854248046875,-0.6057914356758818,9.700329559919238,-1.3065294653072952
1774159274560535600,19.47853564453125,-0.5993192074544728,9.685970779699087,-1.411802149900794
1774159274580528400,19.4985283203125,-0.594127301367186,9.669839729109405,-1.5203960878714917
1774159274600522500,19.5185224609375,-0.585528180652298,9.651960958069562,-1.633156936263293
1774159274620515300,19.538515380859376,-0.5672835719747469,9.635245385590196,-1.7351181582212447
1774159274640508400,19.55850830078125,-0.53109910971988,9.624259881195426,-1.8060776543244719
1774159274660501500,19.57850146484375,-0.460288374437578,9.617826633277534,-1.859012687306851
1774159274680495600,19.59849560546875,-0.3843847729956731,9.613013095515965,-1.9006863215625285
1774159274700488400,19.618488525390624,-0.32240473869442937,9.608718028670548,-1.9336393276154993
1774159274720482300,19.638482421875,-0.2791929716186598,9.604293197965621,-1.9621444143489002
1774159274740475400,19.658475341796876,-0.25319515499845147,9.604466800966858,-1.9648194787770508
1774159274760468500,19.678468505859374,-0.21524264189144596,9.61192413123548,-1.9326101306982337
1774159274780462300,19.69846240234375,-0.15814453441286458,9.622607437813281,-1.884353610920906
1774159274800455400,19.718455322265626,-0.10898362227487378,9.629051791647075,-1.8546869330622255
1774159274820448500,19.738448486328124,-0.08104725707382894,9.629806409406662,-1.8522019843786954
1774159274840441300,19.75844140625,-0.07747244906066916,9.62729179623723,-1.8653855833396313
1774159274860434200,19.77843408203125,-0.10416230306564829,9.623369069835544,-1.8842308613240717
1774159274880428300,19.79842822265625,-0.16565176823781802,9.620563364765047,-1.8941319314830003
1774159274900421400,19.81842138671875,-0.25968599658878516,9.618221185553073,-1.895456019693613
1774159274920414500,19.83841455078125,-0.3650630000732839,9.613992169681191,-1.8995466500081122
1774159274940407300,19.8584072265625,-0.43414457347542046,9.60550666540861,-1.9277311264850199
1774159274960401400,19.8784013671875,-0.48897385923918335,9.592609774434566,-1.9781569531254468
1774159274980394200,19.898394287109376,-0.5656610122742131,9.577312836581468,-2.0311291032478214
1774159275000387300,19.91838720703125,-0.664203036905825,9.56101169012189,-2.077560599555075
1774159275020380200,19.938380126953124,-0.7833516866385937,9.545153611254692,-2.108735636150092
1774159275040373200,19.958373291015626,-0.9082974052775651,9.533543837481737,-2.1111372904643417
1774159275060367400,19.978367431640624,-1.019543684387952,9.527491113314031,-2.087541164691001
1774159275080360400,19.9983603515625,-1.1041660874016583,9.525131982967258,-2.0550110602252185
1774159275100353500,20.018353515625,-1.1538850809469818,9.526382275289297,-2.021626092495769
1774159275120346400,20.038346435546874,-1.1670831468246876,9.532758824583887,-1.983633484840393
1774159275140340200,20.05834033203125,-1.1599766027551144,9.54267816105187,-1.9396208862431346
1774159275160333300,20.078333251953126,-1.1552812114804982,9.555705984929203,-1.8772874719269572
1774159275180326400,20.098326416015624,-1.1377195435658096,9.5714506665498,-1.8064609545536339
1774159275200319200,20.1183193359375,-1.115801434007287,9.588803952410817,-1.7263311867840587
1774159275220312300,20.138312255859375,-1.1031333833530546,9.604559155425429,-1.644974653698504
1774159275240306400,20.158306396484374,-1.0972073543049394,9.618168578583001,-1.5675937462456524
1774159275260299500,20.178299560546876,-1.0574452527590095,9.632647185790539,-1.5047506288416683
1774159275280292400,20.198292236328125,-0.9601635669194162,9.646800798827408,-1.4790977166689931
1774159275300285400,20.218285400390624,-0.8658033214844763,9.65403659529984,-1.4900824904114007
1774159275320279300,20.238279296875,-0.7849399787433445,9.657174308803677,-1.51434292531237
1774159275340272400,20.2582724609375,-0.7837019613809884,9.662978026646375,-1.4775164388269184
1774159275360265200,20.27826513671875,-0.8639454186581075,9.663560794970392,-1.4281376370213925
1774159275380258300,20.29825830078125,-0.9765575062289833,9.660053663632272,-1.378436763654649
1774159275400252400,20.31825244140625,-1.0494880101442337,9.658989249271153,-1.3315018478699028
1774159275420245500,20.33824560546875,-1.058984225829318,9.665509590950608,-1.2754885764859616
1774159275440238600,20.358238525390625,-1.0739146684575824,9.673180856230854,-1.2027739803437143
1774159275460231400,20.3782314453125,-1.1218950747072696,9.67904770243764,-1.1080481895320118
1774159275480224300,20.398224365234373,-1.1636389246549457,9.687275432556866,-0.9864248933140188
1774159275500218400,20.41821826171875,-1.1879252977147698,9.696518477198481,-0.858337369517982
1774159275520211500,20.43821142578125,-1.1989025457378477,9.70397931459844,-0.7522051454856992
1774159275540204300,20.458204345703123,-1.2236493759162723,9.705497902467846,-0.6902094386912881
1774159275560197400,20.478197265625,-1.2722927030541002,9.701081255069374,-0.663850862467289
1774159275580191500,20.49819140625,-1.3253073771439492,9.69480348997414,-0.6517195490382611
1774159275600184300,20.518184326171873,-1.3686926376231014,9.689234165409207,-0.6448208755657077
1774159275620177200,20.53817724609375,-1.4034700826242565,9.684496615493297,-0.6412307421192527
1774159275640170200,20.558170166015625,-1.4315901155628263,9.680449970450997,-0.6401591673649847
1774159275660164400,20.578164306640623,-1.450071967062354,9.677219902488588,-0.6473595271978527
1774159275680157400,20.598157470703125,-1.454981804805249,9.674986444348097,-0.6693583007771522
1774159275700150300,20.618150390625,-1.4452914547875522,9.674034258189797,-0.7032561864648014
1774159275720142000,20.63814208984375,-1.4333094867013394,9.672343236362934,-0.7495186098154634
1774159275740136200,20.65813623046875,-1.4194529569149017,9.670210900509357,-0.8015928612500429
1774159275760129300,20.67812939453125,-1.4077579890765248,9.667828389286994,-0.8495232178129255
1774159275780122400,20.698122314453126,-1.3972934398159385,9.666031568998099,-0.8864489999543875
1774159275800115200,20.718115234375,-1.3737616114504634,9.667236268612742,-0.9097910779014229
1774159275820108300,20.7381083984375,-1.3289292209029198,9.673501758748293,-0.9097874246396124
1774159275840102100,20.75810205078125,-1.2649918785214422,9.685382166156172,-0.8738277841165661
1774159275860095200,20.77809521484375,-1.181315962577611,9.70062357442975,-0.8202394017919897
1774159275880088000,20.798088134765624,-1.1097404534678905,9.711710201111435,-0.7883802553903311
1774159275900081200,20.8180810546875,-1.0725924068778752,9.717487030947208,-0.7683516859054565
1774159275920075300,20.8380751953125,-1.0586142234731466,9.71988883139193,-0.7572814258366822
1774159275940068400,20.858068359375,-1.0585012646179646,9.719287942889332,-0.7651386421430856
1774159275960061200,20.878061279296876,-1.0583206473540514,9.716316818124055,-0.8022075590822845
1774159275980054000,20.898053955078126,-1.063319770815596,9.709478496536612,-0.8750872095931321
1774159276000048000,20.918048095703124,-1.090489225031063,9.698415835252403,-0.9601831484027207
1774159276020041200,20.938041259765626,-1.1321280802343041,9.68452993324101,-1.0481245397713035
1774159276040034300,20.958034423828124,-1.1741652140401304,9.669487846931814,-1.1369860416594892
1774159276060027100,20.978027099609374,-1.212541633381322,9.654529347252845,-1.2207337807305156
1774159276080021200,20.998021240234376,-1.2506719690069557,9.641310384717583,-1.2850491626441478
1774159276100014300,21.018014404296874,-1.2997013728529214,9.628930795615911,-1.3284754857860506
1774159276120007200,21.038007080078124,-1.3534811860963702,9.61755424607694,-1.3568828112334013
1774159276140000000,21.058,-1.3948117060028016,9.609206688970326,-1.3740603021360933
1774159276159994000,21.077994140625,-1.4115275707431136,9.606972061786054,-1.3726198940694332
1774159276179987200,21.0979873046875,-1.4111324339456854,9.609044191884994,-1.3584442153312266
1774159276199980300,21.117980224609376,-1.411446906722337,9.610704818573593,-1.346314070945978
1774159276219973000,21.13797314453125,-1.428630242843926,9.607899113503098,-1.3482124519132077
1774159276239967200,21.15796728515625,-1.4580409001149237,9.601420272877812,-1.3628070867158473
1774159276259960000,21.1779599609375,-1.4849584253959356,9.594180384752153,-1.384559192057699
1774159276279953200,21.197953125,-1.4904869795590638,9.589857260856032,-1.4083559549696743
1774159276299946200,21.2179462890625,-1.4605563900671898,9.590282792791724,-1.4365281564868986
1774159276319940000,21.237940185546876,-1.4275902322717011,9.59122211946845,-1.4631637960866093
1774159276339933200,21.25793310546875,-1.4336401799604297,9.58730699185133,-1.4827642763525246
1774159276359926300,21.27792626953125,-1.4776564318194985,9.575656886067986,-1.5145035227015613
1774159276379919400,21.29791943359375,-1.4991452100500464,9.562318681067227,-1.5763997146442532
1774159276399913200,21.317913330078124,-1.4565250887244938,9.5589594337672,-1.635602721980214
1774159276419906000,21.337906005859374,-1.3675367455862462,9.566347790452838,-1.668895042990148
1774159276439899100,21.357899169921875,-1.2981047513112425,9.574665536943078,-1.6766327976353466
1774159276459892200,21.377892333984374,-1.2463218109734355,9.580279285171628,-1.6838361531428991
1774159276479886300,21.39788623046875,-1.1849123796343803,9.586917700272798,-1.6903810447417198
1774159276499879200,21.417879150390625,-1.1277693735681473,9.596664018261432,-1.674086035761982
1774159276519872300,21.437872314453124,-1.11032183355242,9.605440029913186,-1.634960916945338
1774159276539865300,21.457865234375,-1.1371587678778916,9.606181788191199,-1.6120014816403387
1774159276559859200,21.477859130859375,-1.0873193628232924,9.613515199819206,-1.6026362719237803
1774159276579852000,21.49785205078125,-0.968086834199354,9.633142860352992,-1.5606883507713674
1774159276599845000,21.51784521484375,-0.9136717187270521,9.649737436801194,-1.4893494999617338
1774159276619838200,21.537838134765625,-0.8949061549153179,9.661497432699798,-1.4230166407458484
1774159276639832300,21.557832275390624,-0.9038036009896546,9.666201664867996,-1.3849554978989065
1774159276659825200,21.5778251953125,-0.9387230117447674,9.665123221981524,-1.3691517795674502
1774159276679818200,21.597818359375,-0.9818934604294598,9.660857381230592,-1.3689781765662132
1774159276699811300,21.617811279296873,-1.0177641074948012,9.655960841360688,-1.3772963614478706
1774159276719806200,21.63780615234375,-1.0415369780745356,9.651879709526895,-1.3880929191417992
1774159276739799300,21.65779931640625,-1.0618532053943723,9.647829557353258,-1.4007970640227199
1774159276759792400,21.67779248046875,-1.0818335518233477,9.64330886505842,-1.4165546051248907
1774159276779785200,21.69778515625,-1.0947224056214093,9.638734981271623,-1.4376190204635262
1774159276799779000,21.717779052734375,-1.1044518455404788,9.63527168907523,-1.453309341548383
1774159276819772200,21.737772216796873,-1.1263551228560507,9.632350248670578,-1.455860048944503
1774159276839765200,21.75776513671875,-1.1504890087679027,9.632038113981485,-1.4389653205059467
1774159276859759400,21.77775927734375,-1.188348199301958,9.633598787426948,-1.397132842426747
1774159276879752200,21.797752197265623,-1.2373660588406026,9.636901920625567,-1.3301967566207051
1774159276899745300,21.817745361328125,-1.2820622557878494,9.64295756740272,-1.2409998852983117
1774159276919738400,21.83773828125,-1.3223954352200031,9.65019336387515,-1.1381748130526392
1774159276939732200,21.857732177734373,-1.354814042135328,9.658072718948125,-1.0278550011374055
1774159276959725000,21.87772509765625,-1.3830537559308111,9.667174309292434,-0.8962553045019507
1774159276979718100,21.89771826171875,-1.4008312585532665,9.675570966237784,-0.7690144606631248
1774159276999711200,21.917711181640627,-1.3856795743897556,9.686564653939008,-0.6486500053998082
1774159277019705300,21.937705322265625,-1.3120065815441309,9.703180273175239,-0.5452758844366297
1774159277039698200,21.9576982421875,-1.206923720434308,9.721486914238334,-0.45431832358464597
1774159277059691300,21.977691162109377,-1.1438520549714564,9.732841251945494,-0.3657921545980498
1774159277079684400,21.997684326171875,-1.1826597053367645,9.730563954663277,-0.2963498215921223
1774159277099678200,22.01767822265625,-1.2968360465496778,9.716931150630115,-0.2642611224845983
1774159277119671300,22.03767138671875,-1.4167400446943939,9.700079969072341,-0.2676939830101095
1774159277139664100,22.0576640625,-1.4968794570751487,9.687477092608809,-0.28725067893322553
1774159277159657200,22.0776572265625,-1.532618002193421,9.680624157974123,-0.32709285997804255
1774159277179651300,22.0976513671875,-1.560743295828998,9.674203185015916,-0.37977702347189185
1774159277199644400,22.11764453125,-1.5992115581721067,9.665666242817045,-0.4333307728745043
1774159277219637200,22.13763720703125,-1.6382243026554584,9.656619597530364,-0.48608997436594215
1774159277239631000,22.157631103515627,-1.670045382069051,9.648024787664413,-0.5449379942517727
1774159277259624200,22.177624267578125,-1.7220855120383203,9.63449076783061,-0.6175577517174184
1774159277279617300,22.1976171875,-1.7788304586976766,9.618233460512757,-0.7040721059575676
1774159277299610000,22.217610107421876,-1.8116111769236622,9.605341245713829,-0.7911291887722909
1774159277319604200,22.237604248046875,-1.8249787541493772,9.595943302771449,-0.8704627646628766
1774159277339597300,22.257597412109376,-1.8143699741125106,9.590200375205278,-0.9521073939748108
1774159277359590400,22.27759033203125,-1.7825972638852894,9.58722983496189,-1.0381525963332503
1774159277379583200,22.297583251953125,-1.7482634709984064,9.584963643595575,-1.1146529946245252
1774159277399577000,22.3175771484375,-1.7105587403737008,9.58445043337643,-1.1758760365460068
1774159277419570200,22.337570068359376,-1.6650496196083724,9.588827917808294,-1.2051439974106848
1774159277439563300,22.357563232421874,-1.6044859914436935,9.600414310705661,-1.1950202244117856
1774159277459557400,22.377557373046876,-1.5330153309479355,9.61431190315485,-1.17696543921791
1774159277479550200,22.39755029296875,-1.4780106520846485,9.622501639351249,-1.1803940984923391
1774159277499543300,22.417543212890624,-1.4185694520786403,9.628284898927808,-1.2058989804964513
1774159277519536400,22.437536376953126,-1.319710872311145,9.634839142876864,-1.2643642481423913
1774159277539530200,22.4575302734375,-1.1977223960425705,9.64112976745367,-1.3358359315514563
1774159277559523300,22.4775234375,-1.0905304338242858,9.643400634995102,-1.4092341991089283
1774159277579516200,22.49751611328125,-1.0161370908148586,9.642190674683452,-1.4717333253808318
1774159277599509200,22.51750927734375,-0.9958972166668623,9.638289575591683,-1.5106091456115245
1774159277619503400,22.53750341796875,-1.0287640788063406,9.63170902815759,-1.5304356897182763
1774159277639496400,22.557496337890626,-1.0565843981459737,9.624031333136559,-1.5594992871172726
1774159277659489300,22.5774892578125,-1.044238638248667,9.618620414003729,-1.6006569346748292
1774159277679483100,22.597483154296874,-1.0063024369556457,9.619471477875113,-1.6197288610219955
1774159277699476200,22.617476318359376,-0.9492003474216908,9.622588733112812,-1.6356033065021036
1774159277719468300,22.63746826171875,-0.9045053195182233,9.623533320486546,-1.6552512791715561
1774159277739461400,22.65746142578125,-0.8927951541107148,9.620715340456366,-1.6778456805564461
1774159277759455500,22.67745556640625,-0.9074795130234211,9.615192193120718,-1.7014555425941944
1774159277779448600,22.697448486328124,-0.9400582789365202,9.608550270888209,-1.7211688355848191
1774159277799441400,22.71744140625,-0.9809501151647418,9.601215105694532,-1.7392016281425953
1774159277819435300,22.737435302734376,-1.0201728491369635,9.594535774061082,-1.7534304983727633
1774159277839428400,22.757428466796874,-1.0538374375253916,9.588951836448908,-1.7640346022345124
1774159277859421400,22.77742138671875,-1.0816029579378663,9.584585457932949,-1.77093955931738
1774159277879414500,22.79741455078125,-1.1060727247405797,9.580193944975733,-1.7795782083250582
1774159277899408400,22.817408447265624,-1.1350030511487275,9.573286065283417,-1.798423632439971
1774159277919401500,22.8374013671875,-1.171403640372306,9.563838437980413,-1.8251492884106932
1774159277939394600,22.85739453125,-1.2046719229195266,9.555271100643276,-1.8482267971374093
1774159277959387600,22.8773876953125,-1.2220854145351796,9.551929973521828,-1.8540555032908916
1774159277979381500,22.897381591796876,-1.2329355290472506,9.554977670654655,-1.8310298708818853
1774159277999374300,22.917374267578126,-1.2401966060914098,9.563219429299235,-1.7824452881939707
1774159278019367400,22.937367431640624,-1.2479684091366827,9.574146481505036,-1.7171709981203078
1774159278039361500,22.957361572265626,-1.266436232110858,9.583975217080116,-1.6474088951081036
1774159278059354600,22.977354736328124,-1.3024873503096401,9.589410101610422,-1.5865506679110228
1774159278079347500,22.997347412109374,-1.3377587163075804,9.593531565454601,-1.5313234323382376
1774159278099340500,23.017340576171875,-1.3514843131907284,9.601911855787039,-1.4653199512071906
1774159278119334400,23.03733447265625,-1.3297778005562721,9.62024187772572,-1.3612635105356574
1774159278139327500,23.057327392578124,-1.2861108005262911,9.646098203516006,-1.2120628368884325
1774159278159320300,23.0773203125,-1.2255274447478353,9.672710900631547,-1.0522077904969453
1774159278179314400,23.097314453125,-1.1586308141693473,9.69566039906442,-0.9067071404114365
1774159278199307500,23.1173076171875,-1.091436077427119,9.713575410461425,-0.7909502520088106
1774159278219300600,23.137300537109375,-1.0333401545502245,9.725865567713976,-0.7142243743985891
1774159278239293400,23.15729345703125,-0.9991015656661242,9.733321728938817,-0.659266091960296
1774159278259287300,23.177287353515624,-0.9918538595601916,9.737097740346194,-0.6127912314353511
1774159278279280400,23.1972802734375,-1.0103837149199097,9.738224114027618,-0.5625761980013921
1774159278299273500,23.2172734375,-1.0502294761613011,9.737717333549261,-0.49424701386913655
1774159278319267600,23.237267578125,-1.1050191240344196,9.735333653283119,-0.4154841870712116
1774159278339260400,23.257260498046875,-1.1582164612147956,9.731766316190361,-0.3487999936670065
1774159278359253500,23.27725341796875,-1.1892623915374279,9.729365100267529,-0.309032156500034
1774159278379246600,23.29724658203125,-1.1919094719801098,9.729202018660306,-0.30391943486249073
1774159278399240400,23.317240478515625,-1.167726486229524,9.731861008736491,-0.312569938704744
1774159278419233500,23.337233642578123,-1.1512572166614234,9.733667181375623,-0.3173781427040696
1774159278439226400,23.357226318359373,-1.1586493727393448,9.732510997077823,-0.32579905730783937
1774159278459220500,23.377220458984375,-1.176983413266018,9.729622874420881,-0.3457371354976669
1774159278479213600,23.397213623046873,-1.2000686669077723,9.72553881997764,-0.37961083659213035
1774159278499206700,23.41720654296875,-1.2273811097905039,9.720105104491115,-0.4283499522546306
1774159278519200500,23.437200439453125,-1.255039954958111,9.713952427080272,-0.4841115138998255
1774159278539193300,23.457193359375,-1.2749756585277616,9.708986913627385,-0.5295273668911308
1774159278559186400,23.4771865234375,-1.2805357768729329,9.707306997716426,-0.5466369436567649
1774159278579179500,23.497179443359375,-1.2706865830317138,9.708490070021153,-0.5486131756331771
1774159278599173600,23.517173583984373,-1.2618996115945278,9.709345225545764,-0.553742026421614
1774159278619166500,23.53716650390625,-1.2652318247571588,9.708340432417392,-0.5636454346681014
1774159278639159600,23.55715966796875,-1.299190062329918,9.702934773981571,-0.5792839525004848
1774159278659153400,23.5771533203125,-1.3427075708866119,9.695263508701323,-0.6077897698862478
1774159278679146500,23.597146484375,-1.3439132934145628,9.692015320560335,-0.6550938477769493
1774159278699139300,23.617139404296875,-1.2877137056782841,9.695745154738425,-0.7104176755920052
1774159278719133000,23.6371328125,-1.1852975795596836,9.70507996931672,-0.7595388493746519
1774159278739127000,23.657126953125,-1.0859001436751334,9.712485861659049,-0.8116906230248511
1774159278759120000,23.677119873046873,-1.0074408664010464,9.715385674753785,-0.8756308149505406
1774159278779113000,23.697113037109375,-0.9607643823567777,9.714891753757,-0.9317627442780881
1774159278799106800,23.71710693359375,-0.952457157260552,9.710572721514104,-0.9838608880449086
1774159278819100000,23.737099853515623,-0.9921594914432614,9.700673843312263,-1.0406522311292588
1774159278839093000,23.757093017578125,-1.0682746898092328,9.683827337929605,-1.1192226406276224
1774159278859087000,23.777087158203123,-1.1512803783413021,9.665491470772027,-1.1929879148665814
1774159278879080000,23.797079833984377,-1.2152819450654089,9.649349898788332,-1.258385758254677
1774159278899072800,23.81707275390625,-1.2610181525848805,9.634427054944634,-1.3258999362096189
1774159278919065900,23.83706591796875,-1.2841050136618315,9.626341363644599,-1.3619779424153267
1774159278939060000,23.85706005859375,-1.2671851507820189,9.626724810004234,-1.3750674333520232
1774159278959053000,23.877052978515625,-1.2317637087889015,9.629441083225608,-1.3881748983368276
1774159278979046000,23.8970458984375,-1.218017872835323,9.629369187033175,-1.4007427034869788
1774159278999040000,23.9170400390625,-1.2442406207852066,9.624180970740317,-1.413284789673984
1774159279019032800,23.93703271484375,-1.2897640623368323,9.617171384239196,-1.4201727956220507
1774159279039026000,23.95702587890625,-1.346643302900344,9.608293665778636,-1.4274554999761282
1774159279059018800,23.977018798828126,-1.4183432421073316,9.596235563716291,-1.4390775487087666
1774159279079012900,23.997012939453125,-1.4966475480154156,9.581553542891145,-1.4574870656244456
1774159279099006000,24.017005859375,-1.5694389357209204,9.5663612344563,-1.48053008755967
1774159279118999000,24.0369990234375,-1.6180150428414344,9.555098666685819,-1.500838131573051
1774159279138993200,24.0569931640625,-1.6529085154376923,9.548765956532955,-1.5031054919831455
1774159279158985700,24.07698583984375,-1.6845267657555638,9.544210192924737,-1.4969257804349063
1774159279178978800,24.096978759765626,-1.716444291280955,9.538933129304647,-1.4943071223691105
1774159279198973000,24.116972900390625,-1.766542201141268,9.529927985072135,-1.4933879616975783
1774159279218966000,24.136966064453127,-1.8289453196927905,9.520383327135443,-1.4790750664457677
1774159279238958800,24.156958740234376,-1.8672977005712688,9.519448092111945,-1.4365496376663445
1774159279258952000,24.176951904296875,-1.8661397627077996,9.53159737958908,-1.3552002649739383
1774159279278946000,24.196946044921877,-1.8395861023031175,9.550635842058062,-1.2536639904297888
1774159279298939000,24.21693896484375,-1.7942917933322489,9.573566635790467,-1.139179094724357
1774159279318932000,24.236931884765625,-1.7232064788922667,9.601699089819192,-1.0041462818350642
1774159279338925800,24.25692578125,-1.6355075910426675,9.630058338341117,-0.8703456410892307
1774159279358919000,24.2769189453125,-1.5635153908908366,9.65237363052368,-0.7466544525559992
1774159279378912000,24.296912109375,-1.5223929607771336,9.665450554239749,-0.6571074526216835
1774159279398906000,24.316906005859376,-1.523818171274662,9.666704353693127,-0.6349703665502369
1774159279418899000,24.33689892578125,-1.5557054477922618,9.661414430591464,-0.6381604678284376
1774159279438891800,24.356891845703124,-1.5574639818973839,9.662178400701285,-0.6220712105538696
1774159279458884900,24.376884765625,-1.5211442758902907,9.669367435422538,-0.5998706307921559
1774159279478879000,24.39687890625,-1.5246569601863622,9.671151980751752,-0.5609235719561576
1774159279498872000,24.4168720703125,-1.6337595783315597,9.65625427134931,-0.5078980476787314
1774159279518865000,24.436864990234376,-1.8008083356194198,9.628962359797955,-0.45884197502154855
1774159279538859000,24.45685888671875,-1.945555683119595,9.601902503436802,-0.43436734938062727
1774159279558851800,24.476851806640624,-2.036845727328956,9.583243395674229,-0.42790385245494544
1774159279578845000,24.496844970703126,-2.084322056514025,9.573319967553019,-0.42134533418957143
1774159279598839000,24.516839111328125,-2.132189576973766,9.563766541787981,-0.3981555607274174
1774159279618832000,24.536831787109374,-2.199427568335831,9.550296819362044,-0.3531573486262932
1774159279638825000,24.556824951171876,-2.277454664737731,9.534216622176766,-0.28684016190357503
1774159279658818000,24.576818115234374,-2.3709591701261696,9.513492983099818,-0.20591460411380974
1774159279678812000,24.59681201171875,-2.478199501530826,9.487726673680543,-0.10933447240600362
1774159279698804700,24.6168046875,-2.5949624251708387,9.457070254132152,-0.019601667576003817
1774159279718797800,24.6367978515625,-2.7052237118318674,9.426007591870427,0.05022525343387387
1774159279738792000,24.6567919921875,-2.788922570259869,9.401206328091025,0.09805396712003275
1774159279758784800,24.67678466796875,-2.8469027578026056,9.38349999100864,0.12427615794748999
1774159279778777900,24.69677783203125,-2.8828467623651024,9.372021734660864,0.1574485880379565
1774159279798772000,24.71677197265625,-2.899847581526637,9.365617712837457,0.2156294675182551
1774159279818764800,24.736764892578126,-2.905340625984967,9.362295290416478,0.2771836593565531
1774159279838757600,24.756757568359376,-2.8851047704249617,9.367257881259917,0.3178681181780994
1774159279858751700,24.776751708984374,-2.829426430083811,9.384652083653211,0.30504272153768686
1774159279878744800,24.796744873046876,-2.7484400454849003,9.411093515855073,0.2186296357149258
1774159279898738000,24.816738037109374,-2.6511221192881465,9.441191132476925,0.07660577662819996
1774159279918730800,24.836730712890624,-2.564434892699122,9.465151853778957,-0.07043873276528902
1774159279938724900,24.856724853515626,-2.5124103986904025,9.477404017108679,-0.19237599943643435
1774159279958717700,24.8767177734375,-2.4893852046728133,9.480509581908583,-0.30544452553791923
1774159279978710800,24.896710693359374,-2.4809847483351826,9.476346032488346,-0.4625573057502508
1774159279998705000,24.916704833984376,-2.4490381428457795,9.474188562193513,-0.6421414272233843
1774159280018697700,24.93669775390625,-2.3818137416176497,9.478924943065643,-0.8045677854076028
1774159280038690800,24.95669091796875,-2.2994269887015224,9.486493917015194,-0.9431152553543448
1774159280058685000,24.976684814453126,-2.21202722992897,9.494978252243994,-1.0595804381567984
1774159280078678000,24.996677978515624,-2.0923205079220235,9.512397589078544,-1.1431807315811515
1774159280098670800,25.0166708984375,-1.9475078401006758,9.536292843928933,-1.198635126973316
1774159280118664700,25.036664794921876,-1.8201358441628515,9.55502384788394,-1.2486052457354961
1774159280138657800,25.05665771484375,-1.7199860555410384,9.565064764904974,-1.3120850536078215
1774159280158651000,25.07665087890625,-1.643707264111191,9.567453705868125,-1.3901156571410596
1774159280178644000,25.09664404296875,-1.563513052803278,9.568759527769684,-1.4712765215240418
1774159280198637800,25.116637939453124,-1.4826719218939541,9.566607318171858,-1.565915876161307
1774159280218631000,25.136630859375,-1.4247094161383806,9.557741290149092,-1.6703845508955417
1774159280238623700,25.156623779296876,-1.3914094963438808,9.544591885718702,-1.7706344388909636
1774159280258617900,25.176617919921874,-1.369857005227357,9.53105903492868,-1.8581706835247576
1774159280278610700,25.196610595703124,-1.3528040174871683,9.519128358638286,-1.9304178813509643
1774159280298603800,25.216603759765626,-1.340865596281737,9.508570724266766,-1.9898577661827206
1774159280318598000,25.236597900390624,-1.339002725019306,9.497285944664478,-2.044267255631834
1774159280338591000,25.256591064453126,-1.3476985110417008,9.484254029133915,-2.0983435676038265
1774159280358583800,25.276583740234376,-1.3570850558072327,9.471781501051783,-2.148038303490728
1774159280378577700,25.29657763671875,-1.358589615151286,9.464083932286501,-2.180760131136328
