time,seconds_elapsed,z,y,x
1774159255147265800,0.065265869140625,1.2341420650482178,0.07221172749996185,0.6086365580558777
1774159255167258600,0.085258544921875,1.260428547859192,0.1151224821805954,0.5510764718055725
1774159255187251500,0.10525146484375,1.2500978708267212,0.1854054033756256,0.42500385642051697
1774159255207244500,0.12524462890625,1.214771032333374,0.2770804166793823,0.38664937019348145
1774159255227237400,0.1452373046875,1.3651615381240845,0.4632158577442169,0.41756466031074524
1774159255247230500,0.16523046875,1.7022652626037598,0.6444337964057922,0.4337824583053589
1774159255267223600,0.1852236328125,1.9525238275527954,0.7003875374794006,0.565657377243042
1774159255287216600,0.205216552734375,1.995928406715393,0.5837052464485168,0.6990097761154175
1774159255307207700,0.225207763671875,2.0216848850250244,0.595196008682251,0.8504588007926941
1774159255327200800,0.24520068359375,2.0037896633148193,0.38262516260147095,1.0197070837020874
1774159255347193600,0.265193603515625,1.6654987335205078,0.1705237179994583,0.9409363865852356
1774159255367186400,0.2851865234375,1.3128740787506104,0.13856297731399536,0.3362540900707245
1774159255387179500,0.305179443359375,1.214792013168335,0.0224517323076725,-0.3787165582180023
1774159255407172600,0.325172607421875,1.413372278213501,0.6007589101791382,-0.6848103404045105
1774159255427165400,0.34516552734375,1.7703338861465454,0.4690452516078949,-0.7102276086807251
1774159255447158500,0.365158447265625,2.0238091945648193,-0.10034079104661942,-0.4236965477466583
1774159255467151600,0.385151611328125,2.151050090789795,-0.5728771686553955,0.019375719130039215
1774159255487144400,0.40514453125,2.3008766174316406,-0.8020442724227905,0.26289570331573486
1774159255507137500,0.425137451171875,2.6574292182922363,-0.6437671184539795,0.3055326044559479
1774159255527130600,0.445130615234375,2.7193145751953125,-0.32713302969932556,0.17105033993721008
1774159255547123700,0.465123779296875,1.8682067394256592,-0.1271093487739563,-0.0030645488295704126
1774159255567115500,0.485115478515625,0.9146292805671692,-0.08458060771226883,-0.06840629875659943
1774159255587108600,0.505108642578125,0.5700841546058655,0.24483893811702728,-0.2464848756790161
1774159255607101700,0.525101806640625,0.6670385599136353,0.5889959335327148,-0.5363560318946838
1774159255627094500,0.545094482421875,0.7340673804283142,0.6405880451202393,-0.658212423324585
1774159255647087600,0.565087646484375,0.7297819256782532,0.294164776802063,-0.5025375485420227
1774159255667080700,0.585080810546875,0.6585851311683655,-0.17660298943519592,-0.12641941010951996
1774159255687073500,0.605073486328125,0.7570896744728088,-0.3151720464229584,0.16035282611846924
1774159255707067400,0.6250673828125,0.8681647181510925,-0.07710286974906921,0.23684285581111908
1774159255727060500,0.645060546875,0.8679660558700562,0.08870919793844223,0.2714691162109375
1774159255747053600,0.665053466796875,0.8550559282302856,-0.14367927610874176,0.3512437641620636
1774159255767046700,0.685046630859375,0.8682992458343506,-0.4133020341396332,0.4200271666049957
1774159255787039500,0.70503955078125,0.9518574476242065,-0.41913649439811707,0.4335123896598816
1774159255807032600,0.725032470703125,1.0407068729400635,-0.2795431911945343,0.4190160036087036
1774159255827025700,0.745025634765625,1.0706477165222168,-0.15703758597373962,0.36645418405532837
1774159255847018500,0.7650185546875,1.1251435279846191,-0.16757623851299286,0.36231815814971924
1774159255867011600,0.785011474609375,1.3188854455947876,-0.2898135483264923,0.47316327691078186
1774159255887004700,0.805004638671875,1.6104995012283325,-0.49310851097106934,0.7059599757194519
1774159255906997800,0.824997802734375,1.8197180032730103,-0.6041830778121948,0.9969828128814697
1774159255926990600,0.844990478515625,1.9440698623657227,-0.5176284313201904,1.1979368925094604
1774159255946983700,0.864983642578125,2.1268389225006104,-0.2728203237056732,1.2408199310302734
1774159255966975700,0.884975830078125,2.17390775680542,-0.038985367864370346,1.1640137434005737
1774159255986968600,0.904968505859375,2.2686448097229004,-0.04582018777728081,1.134761929512024
1774159256006961700,0.924961669921875,2.590444803237915,-0.27532267570495605,1.290432333946228
1774159256026954800,0.944954833984375,2.770616054534912,-0.46623608469963074,1.4626481533050537
1774159256046947600,0.964947509765625,2.931058168411255,-0.5126782655715942,1.6301758289337158
1774159256066940700,0.984940673828125,3.059917688369751,-0.6490309834480286,1.8487592935562134
1774159256086933500,1.00493359375,3.0954525470733643,-0.7927933931350708,2.0890862941741943
1774159256106926600,1.024926513671875,2.9934709072113037,-0.7394071817398071,2.3182878494262695
1774159256126919400,1.04491943359375,2.531020164489746,-0.4858633577823639,2.338552713394165
1774159256146912500,1.06491259765625,2.128448486328125,-0.24356651306152344,1.9310059547424316
1774159256166905600,1.084905517578125,1.9343643188476562,-0.1387287825345993,1.3700724840164185
1774159256186898400,1.1048984375,1.7357028722763062,-0.19465714693069458,1.2794709205627441
1774159256206891500,1.1248916015625,1.5342063903808594,-0.07738007605075836,1.609919786453247
1774159256226884600,1.144884521484375,1.1702628135681152,-0.11250273883342743,1.4789350032806396
1774159256246877700,1.164877685546875,1.0246729850769043,-0.10500852763652802,1.063331961631775
1774159256266870500,1.18487060546875,0.9144108891487122,-0.0456140860915184,0.8908597826957703
1774159256286863600,1.204863525390625,0.9378175735473633,-0.11078783869743347,1.0676764249801636
1774159256306856700,1.224856689453125,0.968974232673645,-0.19950029253959656,1.1696780920028687
1774159256326849500,1.244849609375,1.0559782981872559,-0.18588276207447052,1.2434332370758057
1774159256346841600,1.264841552734375,1.0937209129333496,-0.2219386100769043,1.2604539394378662
1774159256366834700,1.284834716796875,1.0670912265777588,-0.36313602328300476,1.1927748918533325
1774159256386827500,1.30482763671875,1.1136748790740967,-0.4854716956615448,1.1731281280517578
1774159256406820600,1.324820556640625,1.1353281736373901,-0.5058516263961792,1.2454173564910889
1774159256426813700,1.344813720703125,1.1262805461883545,-0.3482584059238434,1.2679551839828491
1774159256446806800,1.364806884765625,1.0150156021118164,-0.38988491892814636,1.0127304792404175
1774159256466799600,1.384799560546875,0.8594123125076294,-0.6308460235595703,0.8519987463951111
1774159256486792400,1.40479248046875,0.982193112373352,-0.5981910228729248,0.8449721336364746
1774159256506785500,1.42478564453125,1.046640396118164,-0.44303613901138306,0.6377411484718323
1774159256526778400,1.4447783203125,1.1240758895874023,-0.38139721751213074,0.5482664108276367
1774159256546771500,1.464771484375,1.0028281211853027,-0.3708938956260681,0.7038217186927795
1774159256566764500,1.4847646484375,0.7197237610816956,-0.726209819316864,0.7080503702163696
1774159256586757600,1.504757568359375,0.6857249736785889,-0.8929141759872437,0.628696858882904
1774159256606750500,1.52475048828125,0.8624509572982788,-0.7288765907287598,0.5711401104927063
1774159256626743600,1.54474365234375,1.4523500204086304,-0.5452674031257629,0.12153197824954987
1774159256646736600,1.564736572265625,1.4573137760162354,-0.11045058816671371,0.10465400665998459
1774159256666729700,1.584729736328125,1.29494309425354,0.09653608500957489,0.10975687205791473
1774159256686722600,1.60472265625,1.1616908311843872,0.5353561043739319,0.23830099403858185
1774159256706714600,1.624714599609375,1.0926074981689453,0.32793721556663513,0.21553145349025726
1774159256726707500,1.64470751953125,0.9990109205245972,-0.038887374103069305,0.4590834081172943
1774159256746700500,1.664700439453125,0.8984802961349487,-1.2895965576171875,0.10260353982448578
1774159256766693600,1.684693603515625,0.8389275074005127,-1.0316481590270996,0.17217102646827698
1774159256786686700,1.704686767578125,1.015174150466919,-0.9059458374977112,0.45382481813430786
1774159256806679600,1.724679443359375,0.5760399103164673,-1.482763409614563,1.1860785484313965
1774159256826672600,1.744672607421875,0.3760988712310791,-0.6615103483200073,1.0958497524261475
1774159256846665700,1.764665771484375,0.5932043790817261,-0.4152485728263855,0.615909218788147
1774159256866658600,1.784658447265625,0.5755234956741333,-0.41907116770744324,0.5530218482017517
1774159256886651400,1.8046513671875,0.7362439036369324,-0.4258505403995514,0.5292071104049683
1774159256906644500,1.82464453125,0.59009850025177,-0.2680431008338928,0.7367364168167114
1774159256926637600,1.844637451171875,0.5995714664459229,-0.4743852913379669,0.8284227848052979
1774159256946630400,1.86463037109375,0.9053848385810852,-0.44602730870246887,0.7654895782470703
1774159256966623500,1.88462353515625,1.1774944067001343,-0.15895530581474304,0.34113070368766785
1774159256986616600,1.904616455078125,1.1538317203521729,-0.5555856823921204,0.19205482304096222
1774159257006609700,1.924609619140625,0.9307982921600342,-0.7396586537361145,0.3822055459022522
1774159257026602500,1.9446025390625,0.6320074796676636,-0.6040148138999939,0.2816109359264374
1774159257046594600,1.964594482421875,0.31576740741729736,-0.22705447673797607,0.07370500266551971
1774159257066587600,1.984587646484375,0.3158084750175476,0.38343071937561035,-0.34199830889701843
1774159257086580500,2.00458056640625,-0.305970162153244,0.39303019642829895,-0.04712999239563942
1774159257106573600,2.024573486328125,-0.6637864708900452,0.5851224064826965,0.10319466888904572
1774159257126566700,2.044566650390625,-0.7374032735824585,0.9667822122573853,0.004139340482652187
1774159257146559500,2.0645595703125,-0.7954419255256653,0.45071685314178467,-0.12409272789955139
1774159257166552600,2.084552490234375,-0.8458978533744812,-0.5237166285514832,0.06761176884174347
1774159257186545700,2.104545654296875,-0.8225629329681396,-0.1287761926651001,-0.05364752560853958
1774159257206538800,2.124538818359375,-0.5448720455169678,0.25434041023254395,-0.0372968427836895
1774159257226531600,2.144531494140625,-0.09874015301465988,-0.032000552862882614,0.01192672923207283
1774159257246524700,2.164524658203125,0.26839911937713623,-0.026837266981601715,-0.0334111824631691
1774159257266517800,2.184517822265625,0.4139842987060547,0.17640310525894165,-0.10869375616312027
1774159257286510600,2.204510498046875,0.549228847026825,0.2632402181625366,-0.04486115649342537
1774159257306503400,2.22450341796875,0.8752065896987915,0.027006257325410843,-0.14494279026985168
1774159257326496500,2.24449658203125,0.5389735102653503,-0.23647107183933258,0.011967230588197708
1774159257346489600,2.264489501953125,1.0815987586975098,0.16709186136722565,-0.43370968103408813
1774159257366481700,2.284481689453125,1.426298975944519,-0.43644827604293823,-0.5256185531616211
1774159257386474500,2.304474609375,1.4346860647201538,-1.1190491914749146,-0.3902955949306488
1774159257406467600,2.324467529296875,2.120358467102051,-1.1047266721725464,-0.8053605556488037
1774159257426460400,2.34446044921875,2.6773509979248047,-0.4245409667491913,-1.652443289756775
1774159257446453500,2.36445361328125,1.9615068435668945,0.4677027761936188,-1.931839108467102
1774159257466446600,2.384446533203125,0.8126193881034851,1.243242859840393,-1.1671158075332642
1774159257486439400,2.404439453125,0.1193234920501709,1.504105567932129,-0.5806212425231934
1774159257506432500,2.4244326171875,0.33413606882095337,1.3871132135391235,-0.595875084400177
1774159257526425600,2.444425537109375,0.9303538799285889,-0.08145608752965927,-0.3881436586380005
1774159257546418700,2.464418701171875,1.5173659324645996,-0.7478784322738647,-0.688838005065918
1774159257566411500,2.48441162109375,1.745234727859497,-1.0097131729125977,-0.975848376750946
1774159257586404600,2.504404541015625,1.7159978151321411,-0.8519092202186584,-0.9637908935546875
1774159257606397700,2.524397705078125,1.5827593803405762,-0.2474072277545929,-1.0178465843200684
1774159257626390500,2.544390625,1.4738044738769531,0.39793816208839417,-0.9524157047271729
1774159257646383600,2.564383544921875,1.4668329954147339,0.45521804690361023,-0.846065104007721
1774159257666375700,2.584375732421875,1.3365334272384644,0.33170026540756226,-0.5448007583618164
1774159257686368500,2.604368408203125,1.3955738544464111,0.02289992943406105,-0.47814711928367615
1774159257706361000,2.624361083984375,1.5432446002960205,0.059682443737983704,-0.5240211486816406
1774159257726354200,2.644354248046875,1.8141554594039917,0.4134224057197571,-0.6470610499382019
1774159257746347300,2.66434716796875,1.5577058792114258,-0.33189815282821655,-0.07107777148485184
1774159257766340000,2.684340087890625,0.7193508148193359,-0.21214963495731354,0.028133660554885864
1774159257786333200,2.704333251953125,0.33874109387397766,0.6901389956474304,0.5432243347167969
1774159257806326300,2.724326171875,0.31537121534347534,0.03651459142565727,0.6465279459953308
1774159257826319000,2.744319091796875,0.3784550428390503,-0.4221716523170471,0.6621432900428772
1774159257846312000,2.76431201171875,-0.25615254044532776,0.5361945629119873,0.2343333661556244
1774159257866305000,2.784304931640625,-1.1441231966018677,1.6267197132110596,0.028976719826459885
1774159257886298000,2.804298095703125,-1.0053074359893799,1.9161866903305054,0.13014379143714905
1774159257906291000,2.824291015625,-0.10620710253715515,0.8433291912078857,-0.3341539204120636
1774159257926284000,2.844283935546875,-0.023661622777581215,0.33468207716941833,-0.7227460741996765
1774159257946277000,2.864277099609375,0.32166147232055664,0.4955731928348541,-0.9423887133598328
1774159257966270000,2.88427001953125,1.134608507156372,1.120872139930725,-1.188519835472107
1774159257986262000,2.904261962890625,2.8271262645721436,1.3122361898422241,-0.6912667155265808
1774159258006255000,2.924255126953125,3.11598801612854,2.1297008991241455,1.2724145650863647
1774159258026248000,2.944248046875,4.611647605895996,0.11226364970207214,1.8168162107467651
1774159258046241000,2.964240966796875,4.87140417098999,-1.2861065864562988,1.4823620319366455
1774159258066234000,2.984234130859375,3.784280776977539,-1.0757997035980225,0.7408698797225952
1774159258086227200,3.004227294921875,2.814009189605713,-0.464681476354599,-0.2964690923690796
1774159258106220000,3.024219970703125,2.337881326675415,-0.16978751122951508,-1.1490204334259033
1774159258126213000,3.044213134765625,1.4401819705963135,-0.5433232188224792,-1.5917208194732666
1774159258146206200,3.064206298828125,1.131933331489563,-0.33008626103401184,-1.7513104677200317
1774159258166199000,3.084198974609375,-0.6736676096916199,-0.48266905546188354,-2.1519854068756104
1774159258186192100,3.104192138671875,-0.6680453419685364,0.3051644563674927,-1.7713420391082764
1774159258206185200,3.124185302734375,-0.25003719329833984,0.7300638556480408,-0.7285924553871155
1774159258226178000,3.144177978515625,-0.5071510076522827,0.26621758937835693,0.16307595372200012
1774159258246171000,3.1641708984375,-0.04155970737338066,-0.41831445693969727,0.7886860966682434
1774159258266163200,3.1841630859375,0.1508394032716751,-0.33604949712753296,0.5672740936279297
1774159258286156300,3.20415625,0.01693875528872013,-0.18572665750980377,0.40295925736427307
1774159258306149000,3.224149169921875,-0.08347431570291519,-0.13111834228038788,0.447457879781723
1774159258326142000,3.244141845703125,-0.00875843409448862,-0.1341233253479004,0.44648638367652893
1774159258346135000,3.264135009765625,-0.1671387106180191,-0.169127956032753,0.35407012701034546
1774159258366127900,3.2841279296875,-0.13425880670547485,-0.08334240317344666,-0.03431537374854088
1774159258386121000,3.304120849609375,-0.0639178678393364,-0.025822922587394714,0.04686852917075157
1774159258406114000,3.324114013671875,-0.2850930094718933,-0.35407280921936035,0.009152039885520935
1774159258426107100,3.344107177734375,-0.19912977516651154,-0.14322805404663086,0.04994746670126915
1774159258446100000,3.364099853515625,-0.1449192613363266,0.3058922290802002,-0.34527310729026794
1774159258466093000,3.384093017578125,-0.0453219935297966,0.1099744513630867,-0.23408380150794983
1774159258486086100,3.404086181640625,0.020914467051625252,0.08628889173269272,0.08205807954072952
1774159258506079000,3.424078857421875,-0.33088594675064087,0.21675410866737366,-0.21590018272399902
1774159258526072000,3.444072021484375,-0.4499601423740387,0.21075132489204407,-0.11660929024219513
1774159258546065200,3.464065185546875,-0.2654518485069275,0.10390860587358475,0.0805303156375885
1774159258566057000,3.484056884765625,-0.12945465743541718,-0.19561441242694855,0.3125406801700592
1774159258586050000,3.504050048828125,-0.16767917573451996,-0.053171657025814056,0.0805133655667305
1774159258606043100,3.524043212890625,0.18144915997982025,-1.9228720664978027,1.1120505332946777
1774159258626036200,3.5440361328125,0.09159783273935318,-0.4295859932899475,0.7593839168548584
1774159258646029000,3.564029052734375,-0.18043173849582672,0.4878579080104828,-0.2527458965778351
1774159258666022100,3.584022216796875,0.034494299441576004,-0.12147781252861023,-0.6001706123352051
1774159258686015200,3.60401513671875,0.1502133458852768,-0.24569594860076904,-0.32314613461494446
1774159258706008300,3.62400830078125,0.21073441207408905,-0.48594924807548523,-0.21153421700000763
1774159258726001400,3.64400146484375,0.2833210229873657,-0.6574976444244385,-0.18327054381370544
1774159258745994500,3.663994384765625,0.41674569249153137,-0.3853747546672821,-0.2621254026889801
1774159258765987300,3.6839873046875,0.8494865298271179,0.06164632365107536,-0.542273759841919
1774159258785980400,3.70398046875,0.7047948241233826,0.05277829244732857,-0.554076611995697
1774159258805973500,3.723973388671875,0.361150324344635,-0.46727943420410156,-0.4576020836830139
1774159258825966300,3.74396630859375,0.28409507870674133,-0.6673169732093811,-0.5520016551017761
1774159258845959400,3.76395947265625,0.3950493037700653,-0.5161434412002563,-0.5543481707572937
1774159258865952500,3.783952392578125,0.20742078125476837,-0.5892159342765808,-0.3529881238937378
1774159258885944300,3.8039443359375,0.12395714968442917,-0.9363244771957397,-0.09034289419651031
1774159258905937400,3.8239375,-0.18901757895946503,-1.4306442737579346,0.2283538430929184
1774159258925930500,3.843930419921875,-0.47437584400177,-1.2477742433547974,0.3738948702812195
1774159258945923600,3.863923583984375,0.10331174731254578,-1.1524361371994019,0.5737869143486023
1774159258965916400,3.88391650390625,0.568610429763794,-1.200231671333313,0.5386247038841248
1774159258985909500,3.903909423828125,0.17601850628852844,-0.4888518154621124,0.1126188188791275
1774159259005902600,3.923902587890625,0.2581602931022644,-0.3014298677444458,0.09508603811264038
1774159259025895400,3.9438955078125,0.17687007784843445,0.1100742518901825,-0.10207522660493851
1774159259045888500,3.963888427734375,0.16521239280700684,0.030593853443861008,-0.18243156373500824
1774159259065881600,3.983881591796875,0.2962917685508728,-0.045146141201257706,-0.054770126938819885
1774159259085874400,4.00387451171875,0.4055562913417816,-0.4929386079311371,0.22887422144412994
1774159259105867300,4.0238671875,-0.11868647485971451,-1.0389437675476074,0.45437437295913696
1774159259125860400,4.0438603515625,-0.5007869601249695,-0.7115318179130554,0.3345739245414734
1774159259145853400,4.063853515625,-0.545785665512085,-0.2101023644208908,0.17264170944690704
1774159259165846300,4.08384619140625,-0.305338978767395,-0.22657398879528046,0.10532473772764206
1774159259185839400,4.10383935546875,-0.14532804489135742,-0.5860233902931213,0.18319948017597198
1774159259205832400,4.12383251953125,-0.203530415892601,-0.7614128589630127,0.27310696244239807
1774159259225824300,4.14382421875,-0.18497350811958313,-0.7916426658630371,0.20091745257377625
1774159259245817300,4.1638173828125,0.22349542379379272,0.6174756288528442,-0.49465155601501465
1774159259265810400,4.183810546875,0.4019548296928406,0.6559249758720398,-0.7687782049179077
1774159259285803500,4.203803466796875,0.14959368109703064,0.06604468822479248,-0.383073091506958
1774159259305796400,4.22379638671875,0.6179929971694946,-0.2301638275384903,0.1939365565776825
1774159259325789400,4.24378955078125,0.1313900649547577,-0.593863844871521,0.3927060067653656
1774159259345782500,4.263782470703125,-0.045735277235507965,-0.25924918055534363,0.15532249212265015
1774159259365775400,4.283775390625,-0.057920247316360474,-0.08004365861415863,0.08058516681194305
1774159259385768400,4.3037685546875,0.003232368966564536,0.3330157697200775,-0.0033539850264787674
1774159259405761500,4.323761474609375,0.04829338192939758,0.19592201709747314,0.18164339661598206
1774159259425754600,4.343754638671875,-0.01766885817050934,-0.13413791358470917,0.43122604489326477
1774159259445747500,4.36374755859375,-0.11921404302120209,-0.3542836904525757,0.5236767530441284
1774159259465740500,4.383740478515625,-0.10204383730888367,-0.9492624402046204,0.6487759947776794
1774159259485733600,4.403733642578125,-0.11984339356422424,-1.2698346376419067,0.8165242075920105
1774159259505726500,4.4237265625,-0.10400444269180298,-0.9282760620117188,0.813759446144104
1774159259525719300,4.44371923828125,-0.09368734061717987,-0.45121094584465027,0.425300657749176
1774159259545712400,4.46371240234375,-0.17476727068424225,-0.2799129784107208,0.16970163583755493
1774159259565705500,4.48370556640625,-0.15235137939453125,0.07027272880077362,0.11844107508659363
1774159259585698300,4.5036982421875,-0.10965865850448608,-0.31013819575309753,0.29414066672325134
1774159259605690400,4.5236904296875,0.20144861936569214,-1.1781045198440552,0.7179725170135498
1774159259625683500,4.543683349609375,0.22367456555366516,-1.4803770780563354,1.0768773555755615
1774159259645676300,4.56367626953125,0.30653324723243713,-1.7597792148590088,1.196339726448059
1774159259665669400,4.58366943359375,0.18998993933200836,-1.5658572912216187,1.0481051206588745
1774159259685662500,4.603662353515625,0.27290141582489014,-2.1047379970550537,1.090935230255127
1774159259705657000,4.623656982421875,0.1946038454771042,-2.2438580989837646,1.2616126537322998
1774159259725650200,4.643650146484375,0.18463577330112457,-2.167665481567383,1.3719663619995117
1774159259745643300,4.663643310546875,0.3215489685535431,-2.2367711067199707,1.0352246761322021
1774159259765636000,4.683635986328125,0.6498175263404846,-2.4161860942840576,0.6077851057052612
1774159259785629000,4.70362890625,0.15056748688220978,-1.5813555717468262,0.4621061682701111
1774159259805622000,4.7236220703125,-0.46054157614707947,-0.5224933624267578,0.3447021245956421
1774159259825615000,4.743614990234375,-0.8469687700271606,1.806390404701233,-0.23544640839099884
1774159259845608200,4.763608154296875,-1.0187203884124756,3.5781474113464355,-0.8155515193939209
1774159259865601000,4.78360107421875,-0.5136401653289795,3.9233007431030273,-1.3730800151824951
1774159259885594000,4.803593994140625,0.023711953312158585,2.9154698848724365,-1.5331499576568604
1774159259905587200,4.823587158203125,-0.3888412415981293,1.1079246997833252,-0.7540257573127747
1774159259925580000,4.843580078125,-0.13374994695186615,0.0704597681760788,0.08501045405864716
1774159259945573000,4.863572998046875,0.3041376769542694,0.07954144477844238,0.010440083220601082
1774159259965566200,4.883566162109375,0.11452630162239075,0.09954767674207687,-0.29078319668769836
1774159259985559300,4.903559326171875,-0.001255877548828721,0.1779678612947464,-0.380901038646698
1774159260005552000,4.92355224609375,0.054447393864393234,0.2050245851278305,-0.6277568340301514
1774159260025545200,4.943545166015625,0.07109549641609192,0.5355439186096191,-0.8791247606277466
1774159260045538300,4.963538330078125,0.02930326759815216,0.5680569410324097,-0.8313778042793274
1774159260065531100,4.98353125,0.003461607964709401,0.07274142652750015,-0.49299168586730957
1774159260085524000,5.00352392578125,-0.01783985085785389,-0.3392661511898041,-0.22561553120613098
1774159260105517000,5.02351708984375,-0.20403707027435303,-0.2668929398059845,-0.16764771938323975
1774159260125509000,5.043509033203125,-0.39391037821769714,0.2330498844385147,-0.41974157094955444
1774159260145502200,5.063502197265625,-0.4806572496891022,0.45931151509284973,-0.6688584685325623
1774159260165495000,5.0834951171875,-0.5202453136444092,0.8034252524375916,-0.9518431425094604
1774159260185488100,5.103488037109375,-0.25701579451560974,0.9127665758132935,-0.688930869102478
1774159260205481000,5.12348095703125,-0.2901246249675751,0.6671871542930603,-0.37766605615615845
1774159260225474000,5.14347412109375,-0.3596786856651306,0.4842469096183777,-0.25836920738220215
1774159260245467100,5.163467041015625,-0.21133273839950562,-0.20135514438152313,0.10065805912017822
1774159260265460000,5.1834599609375,-0.3026997745037079,-0.3065299987792969,0.18212908506393433
1774159260285453000,5.203453125,-0.23802244663238525,-0.6472863554954529,0.3037855923175812
1774159260305446100,5.223446044921875,-0.08718317747116089,-0.05955052748322487,0.06154969334602356
1774159260325439200,5.243439208984375,-0.10885284841060638,1.2459073066711426,-0.6209670901298523
1774159260345432000,5.26343212890625,-0.0274208914488554,1.070666790008545,-1.025223970413208
1774159260365425200,5.283425048828125,0.039518408477306366,0.5195208191871643,-0.3760756552219391
1774159260385418200,5.303418212890625,0.08566699922084808,-0.22982031106948853,0.10546880215406418
1774159260405411000,5.3234111328125,0.21484676003456116,-0.7689350843429565,0.47355860471725464
1774159260425404200,5.343404052734375,0.22038939595222473,-0.8672381043434143,0.4322218894958496
1774159260445397200,5.363397216796875,0.38550180196762085,-0.5939571261405945,0.23060861229896545
1774159260465390000,5.38339013671875,0.26177507638931274,-0.41734248399734497,0.058994926512241364
1774159260485383000,5.4033828125,0.045427560806274414,-0.421409010887146,0.0314263254404068
1774159260505376000,5.4233759765625,-0.018460020422935486,-0.5143962502479553,0.17229337990283966
1774159260525369000,5.443369140625,0.017334861680865288,-0.6315624117851257,0.19220498204231262
1774159260545362200,5.463362060546875,0.04435029253363609,-0.44496843218803406,0.08884753286838531
1774159260565355000,5.48335498046875,-0.06526264548301697,-0.1852344274520874,-0.02334633469581604
1774159260585348000,5.50334814453125,-0.14770753681659698,-0.008529898710548878,-0.15914075076580048
1774159260605341200,5.523341064453125,-0.1893303096294403,0.1904405802488327,-0.17467835545539856
1774159260625334000,5.543333984375,-0.22422385215759277,0.6022475957870483,0.01847432740032673
1774159260645327000,5.5633271484375,-0.27371612191200256,0.5580102205276489,0.07376205176115036
1774159260665320200,5.5833203125,-0.12534865736961365,0.2369561493396759,0.12344042211771011
1774159260685313300,5.603313232421875,-0.05595627799630165,0.4189915359020233,0.19082459807395935
1774159260705303600,5.623303466796875,0.08111459016799927,0.7908012866973877,-0.011057277210056782
1774159260725296400,5.64329638671875,-0.18451374769210815,0.2896938920021057,-0.24869614839553833
1774159260745289500,5.66328955078125,-0.22372932732105255,0.4636043608188629,-0.3684995770454407
1774159260765282600,5.683282470703125,-0.1133880466222763,0.5591200590133667,-0.3501768410205841
1774159260785275400,5.703275390625,-0.003224330022931099,0.03293221816420555,-0.029526211321353912
1774159260805268500,5.7232685546875,0.006215567234903574,-0.14196991920471191,0.46636727452278137
1774159260825261600,5.743261474609375,0.12895651161670685,0.24160878360271454,0.3510867953300476
1774159260845254700,5.763254638671875,0.3645362854003906,0.9040695428848267,-0.03468726947903633
1774159260865247500,5.78324755859375,0.3291131854057312,0.9893496632575989,-0.2883169949054718
1774159260885240600,5.803240478515625,0.3122248947620392,0.46918797492980957,-0.5532237887382507
1774159260905233700,5.823233642578125,0.060091421008110046,0.02996656857430935,-1.0394641160964966
1774159260925226800,5.843226806640625,0.09167277812957764,-0.16579221189022064,-1.4718782901763916
1774159260945219600,5.863219482421875,0.15043051540851593,-1.1440829038619995,-0.7843119502067566
1774159260965212700,5.883212646484375,0.25896012783050537,-0.9614785313606262,0.09945041686296463
1774159260985205800,5.903205810546875,0.17991261184215546,-1.1419134140014648,0.3214459717273712
1774159261005198600,5.923198486328125,0.09564086049795151,-0.824519157409668,0.02040572091937065
1774159261025191400,5.94319140625,0.09805191308259964,-0.30811595916748047,-0.21393495798110962
1774159261045184500,5.9631845703125,0.16511709988117218,0.05749307572841644,-0.20187903940677643
1774159261065177600,5.983177490234375,0.10433578491210938,0.6190207600593567,-0.11197157949209213
1774159261085170400,6.00317041015625,0.06003914028406143,1.3617271184921265,-0.07906583696603775
1774159261105163500,6.02316357421875,0.05187000334262848,2.2241218090057373,-0.2925581932067871
1774159261125156600,6.043156494140625,-0.05308174341917038,2.074730634689331,-0.5077881813049316
1774159261145149400,6.0631494140625,-0.17212216556072235,1.4927529096603394,0.17358435690402985
1774159261165142500,6.083142578125,-0.26376473903656006,0.6901154518127441,0.5422934889793396
1774159261185135600,6.103135498046875,-0.3783494830131531,0.5120260715484619,0.5261931419372559
1774159261205128700,6.123128662109375,-0.3816043436527252,-0.51432204246521,-0.365782767534256
1774159261225121500,6.14312158203125,-0.23362062871456146,-1.4116393327713013,-0.7525570392608643
1774159261245114600,6.163114501953125,0.1955755203962326,-2.103954792022705,-0.64700847864151
1774159261265107700,6.183107666015625,0.14085297286510468,-1.5985957384109497,-0.7905001640319824
1774159261285100500,6.2031005859375,0.12391885370016098,-1.5778167247772217,-0.5678547024726868
1774159261305093600,6.22309375,-0.08445155620574951,-1.6629639863967896,-0.29246756434440613
1774159261325086700,6.243086669921875,-0.29453468322753906,-1.2984200716018677,-0.12580052018165588
1774159261345079600,6.26307958984375,-0.2313840538263321,-0.5791504979133606,0.13760888576507568
1774159261365072400,6.283072265625,-0.15378446877002716,-0.1343933641910553,0.7384385466575623
1774159261385065500,6.3030654296875,-0.21272285282611847,-0.7204652428627014,0.9824175238609314
1774159261405058600,6.32305859375,-0.22232989966869354,-0.7013788819313049,-0.31216904520988464
1774159261425051600,6.3430517578125,-0.12452974170446396,0.5627383589744568,-0.1373833268880844
1774159261445044500,6.36304443359375,-0.02821909636259079,0.7084396481513977,-0.04121559485793114
1774159261465037600,6.38303759765625,0.039686620235443115,0.44943955540657043,0.03315385803580284
1774159261485030700,6.40303076171875,0.005306108854711056,0.17848028242588043,0.10057814419269562
1774159261505023500,6.4230234375,-0.09179368615150452,0.033694058656692505,0.2173573523759842
1774159261525016600,6.4430166015625,-0.10979558527469635,0.24936909973621368,0.16009992361068726
1774159261545009700,6.463009765625,-0.08682891726493835,0.022374609485268593,0.14631399512290955
1774159261565002800,6.483002685546875,-0.050852205604314804,0.23571574687957764,0.15607903897762299
1774159261584995600,6.50299560546875,0.0039956094697117805,0.16924387216567993,0.1753723919391632
1774159261604988700,6.52298876953125,0.0069950055330991745,-0.1817130595445633,0.4799308180809021
1774159261624981800,6.542981689453125,0.07394883036613464,-0.7220659255981445,0.857776403427124
1774159261644974600,6.562974609375,-0.005905745550990105,-0.8626826405525208,1.2428077459335327
1774159261664967400,6.582967529296875,-0.007719713728874922,-0.4841732680797577,1.2687687873840332
1774159261684960500,6.60296044921875,0.10561490058898926,-0.4992125928401947,0.8506801724433899
1774159261704953300,6.622953369140625,0.021175839006900787,-0.7986745834350586,0.2761155962944031
1774159261724946200,6.6429462890625,0.08036588132381439,-0.8105595707893372,0.00546250632032752
1774159261744939300,6.662939208984375,0.16743271052837372,-1.2816909551620483,0.2049863040447235
1774159261764932400,6.682932373046875,0.13437852263450623,-1.7735804319381714,0.4811219573020935
1774159261784925200,6.70292529296875,-0.02674170769751072,-1.2132409811019897,0.7913597226142883
1774159261804918300,6.722918212890625,0.12942464649677277,-0.7045196294784546,0.3309568464756012
1774159261824911400,6.742911376953125,0.16814887523651123,0.24847418069839478,-0.19659245014190674
1774159261844904400,6.762904541015625,0.1590040624141693,0.8144408464431763,-0.3106796443462372
1774159261864897300,6.782897216796875,0.17633910477161407,0.522158682346344,-0.36648085713386536
1774159261884890400,6.802890380859375,0.1945727914571762,-0.0029877538327127695,-0.4290575683116913
1774159261904883500,6.822883544921875,0.3176083564758301,-0.9434964060783386,-0.568488597869873
1774159261924876300,6.842876220703125,0.22554850578308105,-1.7617031335830688,-0.27870339155197144
1774159261944869400,6.862869384765625,0.40491756796836853,-2.08141827583313,0.31529536843299866
1774159261964862500,6.882862548828125,0.4720225930213928,-1.708590030670166,0.3370265066623688
1774159261984855300,6.902855224609375,0.36563122272491455,-0.9898424744606018,-0.2291700839996338
1774159262004848000,6.92284814453125,0.2202530950307846,-0.014954057522118092,-0.49043160676956177
1774159262024841200,6.94284130859375,0.135604128241539,0.09542951732873917,-0.3226112127304077
1774159262044834300,6.962834228515625,0.06376688182353973,-0.06544636934995651,0.009638775140047073
1774159262064827400,6.982827392578125,-0.019565720111131668,-0.32938796281814575,-0.005873139947652817
1774159262084820200,7.0028203125,0.0023622200824320316,-0.2673359215259552,-0.018610656261444092
1774159262104813300,7.022813232421875,0.06696612387895584,-0.22388297319412231,-0.07622188329696655
1774159262124806400,7.042806396484375,0.11369794607162476,-0.18169929087162018,-0.14770086109638214
1774159262144799200,7.06279931640625,0.14592885971069336,-0.23709748685359955,-0.11202960461378098
1774159262164792300,7.082792236328125,0.08255809545516968,-0.3826254606246948,-0.04189128056168556
1774159262184785400,7.102785400390625,0.05992892012000084,-0.37236547470092773,-0.03572109341621399
1774159262204778500,7.122778564453125,0.02052466571331024,-0.09221237897872925,0.15220633149147034
1774159262224771300,7.142771240234375,-0.07138896733522415,0.3948923647403717,0.418782114982605
1774159262244764400,7.162764404296875,-0.17097756266593933,0.5498642325401306,0.40770241618156433
1774159262264757500,7.182757568359375,-0.16426458954811096,0.29163306951522827,0.03014383278787136
1774159262284750300,7.202750244140625,-0.12318377941846848,0.5402841567993164,-0.07688669860363007
1774159262304743200,7.2227431640625,-0.1520111858844757,0.5606960654258728,-0.07117410749197006
1774159262324736300,7.242736328125,-0.20297546684741974,0.52288818359375,-0.07651469856500626
1774159262344729300,7.262729248046875,-0.27949315309524536,0.5323245525360107,-0.06433845311403275
1774159262364723500,7.282723388671875,-0.33519619703292847,0.6213146448135376,-0.09395132213830948
1774159262384716300,7.30271630859375,-0.35743197798728943,0.6869970560073853,-0.11616501212120056
1774159262404709400,7.32270947265625,-0.43223217129707336,0.7716956734657288,-0.19426140189170837
1774159262424702500,7.342702392578125,-0.4843873679637909,0.4056706428527832,-0.23086021840572357
1774159262444695300,7.3626953125,-0.46124592423439026,0.07370279729366302,-0.009888086467981339
1774159262464688400,7.3826884765625,-0.2569263279438019,-0.3627453148365021,0.13781775534152985
1774159262484681500,7.402681396484375,-0.1760527491569519,-0.4729715883731842,0.1912301778793335
1774159262504674600,7.422674560546875,-0.15244409441947937,-0.3022764325141907,0.17833764851093292
1774159262524667100,7.442667236328125,-0.12531809508800507,-0.2554221451282501,0.09345857799053192
1774159262544660200,7.46266015625,-0.1172185018658638,-0.3727622330188751,0.07666419446468353
1774159262564653300,7.4826533203125,-0.1735754907131195,-0.5499129891395569,0.18311315774917603
1774159262584646100,7.502646240234375,-0.15001395344734192,-0.5127000212669373,0.15118512511253357
1774159262604639200,7.52263916015625,-0.051906734704971313,-0.5318506956100464,0.13518249988555908
1774159262624632300,7.54263232421875,-0.050575386732816696,-0.6613067984580994,0.03599049896001816
1774159262644625400,7.56262548828125,-0.09613785147666931,-0.5758330821990967,0.06908515840768814
1774159262664618200,7.5826181640625,-0.08412115275859833,-0.514623761177063,0.02101837284862995
1774159262684611300,7.602611328125,-0.03711531683802605,-0.599479615688324,0.08407562971115112
1774159262704604400,7.6226044921875,0.015560337342321873,-0.6548367738723755,0.11146719008684158
1774159262724598500,7.6425986328125,0.08371791243553162,-0.506336510181427,-0.016519414260983467
1774159262744591400,7.66259130859375,0.18767568469047546,-0.46190834045410156,-0.2296106070280075
1774159262764584200,7.682584228515625,0.2227921485900879,-0.44852423667907715,-0.31604284048080444
1774159262784577300,7.702577392578125,0.2426019161939621,-0.46586623787879944,-0.2642386555671692
1774159262804570400,7.7225703125,0.37829288840293884,-0.4622177183628082,-0.23464693129062653
1774159262824563200,7.742563232421875,0.49627959728240967,-0.43328115344047546,-0.2805618941783905
1774159262844556300,7.762556396484375,0.4743075668811798,-0.2451675981283188,-0.3067612648010254
1774159262864549400,7.78254931640625,0.4144096076488495,-0.12317333370447159,-0.3484176993370056
1774159262884542200,7.802542236328125,0.23521777987480164,-0.005408676341176033,-0.32887017726898193
1774159262904536300,7.822536376953125,0.09560220688581467,-0.03975696861743927,-0.2464698702096939
1774159262924529400,7.842529296875,0.04175649583339691,-0.12989524006843567,-0.04343690723180771
1774159262944522500,7.8625224609375,-0.03586777672171593,-0.25553932785987854,0.04339189454913139
1774159262964515300,7.882515380859375,-0.0840253233909607,-0.15456365048885345,0.11243242770433426
1774159262984508200,7.902508056640625,-0.12439095973968506,-0.17826609313488007,0.03955056145787239
1774159263004501200,7.922501220703125,-0.1804795265197754,-0.22926171123981476,0.007492678239941597
1774159263024494300,7.942494384765625,-0.18859130144119263,-0.3115229904651642,0.04104910418391228
1774159263044487200,7.962487060546875,-0.17842410504817963,-0.3780916631221771,0.001306687481701374
1774159263064480300,7.982480224609375,-0.04639142379164696,-0.4125228822231293,-0.017807161435484886
1774159263084473300,8.002473388671875,0.01597866602241993,-0.412830114364624,-0.03259021043777466
1774159263104466400,8.022466552734375,0.052702974528074265,-0.3311675786972046,-0.012795686721801758
1774159263124459300,8.042459228515625,0.06244958937168121,-0.28173768520355225,0.02594432234764099
1774159263144452400,8.062452392578125,0.03959480673074722,-0.1434166431427002,0.10397011786699295
1774159263164445400,8.082445556640625,0.038556456565856934,-0.07274226099252701,0.12053757160902023
1774159263184438300,8.102438232421875,-0.03218444809317589,-0.03924551606178284,0.08818729221820831
1774159263204431400,8.122431396484375,-0.11355753242969513,-0.028415938839316368,0.06666871160268784
1774159263224424400,8.142424560546875,-0.17332744598388672,-0.09770896285772324,0.02364862523972988
1774159263244417500,8.16241748046875,-0.1580982506275177,0.043080247938632965,-0.020177189260721207
1774159263264410400,8.182410400390625,-0.17165274918079376,0.09212439507246017,0.00625119311735034
1774159263284403200,8.2024033203125,-0.19279232621192932,0.040256284177303314,0.06670371443033218
1774159263304397300,8.222397216796875,-0.19163064658641815,0.03837382793426514,0.10505735129117966
1774159263324390400,8.242390380859375,-0.1498841643333435,-0.03367822989821434,0.15430524945259094
1774159263344383200,8.26238330078125,-0.11028950661420822,-0.04670251905918121,0.15410582721233368
1774159263364376300,8.282376220703124,-0.10118746757507324,-0.042994849383831024,0.1530686616897583
1774159263384369400,8.302369384765624,-0.08788921684026718,-0.0828745886683464,0.17020373046398163
1774159263404362500,8.322362548828124,-0.057948507368564606,0.018260616809129715,0.12424097210168839
1774159263424355300,8.342355224609374,-0.07056058198213577,-0.02958362177014351,0.06982924789190292
1774159263444348400,8.362348388671874,-0.2291983664035797,0.08199778944253922,-0.1146722063422203
1774159263464341500,8.382341552734376,-0.34238019585609436,0.01957141049206257,-0.04485917091369629
1774159263484334300,8.402334228515626,-0.29358866810798645,0.01678852178156376,-0.019341737031936646
1774159263504327400,8.422327392578126,-0.20470458269119263,0.13418886065483093,-0.04921581968665123
1774159263524320300,8.4423203125,-0.16653534770011902,0.00905242096632719,-0.06759253889322281
1774159263544313300,8.462313232421875,-0.09118868410587311,0.029324740171432495,-0.09489942342042923
1774159263564306200,8.48230615234375,-0.02983860671520233,0.0784984678030014,-0.060864079743623734
1774159263584299300,8.50229931640625,0.07382448017597198,0.049451544880867004,-0.06914346665143967
1774159263604292400,8.522292236328125,0.175108402967453,-0.005016704089939594,-0.08843313157558441
1774159263624285200,8.54228515625,0.2675798237323761,-0.011234354227781296,-0.12998303771018982
1774159263644278300,8.5622783203125,0.26099419593811035,-0.021071938797831535,-0.20213095843791962
1774159263664272400,8.5822724609375,0.19137053191661835,-0.0453321747481823,-0.3189103603363037
1774159263684265500,8.602265380859375,0.194162979722023,-0.1103326752781868,-0.4050564765930176
1774159263704258600,8.622258544921875,0.22808745503425598,-0.10270179063081741,-0.3288247883319855
1774159263724251000,8.6422509765625,0.19360166788101196,0.17535363137722015,-0.2361176460981369
1774159263744244000,8.662243896484375,-0.01903999038040638,0.6322838068008423,-0.2640138268470764
1774159263764236800,8.68223681640625,-0.3406628668308258,0.7230633497238159,-0.29624345898628235
1774159263784229600,8.702229736328125,-0.1448720544576645,0.4957868456840515,-0.2821632921695709
1774159263804222700,8.72222265625,0.07029884308576584,0.32226887345314026,-0.27694401144981384
1774159263824215800,8.7422158203125,0.04464606195688248,0.3549504280090332,-0.14149543642997742
1774159263844208600,8.762208740234374,-0.0036120088770985603,0.1306878626346588,0.0385175496339798
1774159263864201700,8.78220166015625,-0.03272111713886261,0.13224545121192932,0.19971615076065063
1774159263884194800,8.80219482421875,-0.17091482877731323,0.07377239316701889,0.3170848488807678
1774159263904188000,8.82218798828125,-0.2615218460559845,0.19801603257656097,0.26534828543663025
1774159263924180700,8.8421806640625,-0.2743210792541504,0.2963496744632721,0.15661460161209106
1774159263944173800,8.862173828125,-0.1870061159133911,0.3217812180519104,-0.021022044122219086
1774159263964167000,8.8821669921875,-0.1288960725069046,0.33066362142562866,-0.1236005574464798
1774159263984159700,8.90215966796875,-0.16996566951274872,0.246160626411438,-0.11616171151399612
1774159264004153900,8.92215380859375,-0.23540624976158142,0.30274757742881775,-0.16050930321216583
1774159264024146700,8.942146728515626,-0.2604886591434479,0.23680494725704193,-0.10646247863769531
1774159264044139800,8.962139892578126,-0.23782244324684143,0.09578295052051544,-0.0056383041664958
1774159264064132900,8.9821328125,-0.1959812194108963,0.04124399647116661,0.04542633518576622
1774159264084125700,9.002125732421876,-0.163187175989151,0.02289498597383499,0.09742192178964615
1774159264104118800,9.022118896484375,-0.15171286463737488,0.008548639714717865,0.12019278109073639
1774159264124112000,9.04211181640625,-0.13740885257720947,-0.07699093967676163,0.1180347129702568
1774159264144104700,9.062104736328125,-0.15247073769569397,-0.09449607133865356,0.16754363477230072
1774159264164097800,9.082097900390625,-0.13596804440021515,-0.09752068668603897,0.1733405888080597
1774159264184091000,9.1020908203125,-0.1683429777622223,-0.06686443090438843,0.1798965185880661
1774159264204084000,9.122083984375,-0.17627882957458496,-0.046819139271974564,0.2197878509759903
1774159264224076800,9.142076904296875,-0.15758410096168518,-0.1075597032904625,0.15758107602596283
1774159264244070000,9.16206982421875,-0.12595996260643005,-0.16148225963115692,0.20948515832424164
1774159264264063000,9.18206298828125,-0.1344681978225708,-0.20147918164730072,0.057879671454429626
1774159264284056800,9.202056884765625,-0.12650161981582642,-0.15397611260414124,0.08782371878623962
1774159264304049700,9.222049560546875,-0.13919676840305328,-0.26973479986190796,0.10782110691070557
1774159264324042800,9.242042724609375,-0.12399735301733017,-0.25697773694992065,0.08413448184728622
1774159264344035800,9.262035888671875,-0.1491745114326477,-0.21815486252307892,0.08168971538543701
1774159264364029000,9.28202880859375,-0.14193004369735718,-0.13463279604911804,0.05572456493973732
1774159264384021800,9.302021728515625,-0.06825104355812073,-0.12834429740905762,0.008700056001543999
1774159264404014800,9.322014892578125,0.010331908240914345,-0.14915670454502106,-0.13071437180042267
1774159264424008000,9.342008056640625,-0.07995124161243439,-0.24656154215335846,-0.21376384794712067
1774159264444000800,9.362000732421874,-0.18183471262454987,-0.380243718624115,-0.25453710556030273
1774159264463993900,9.381993896484374,-0.04825223237276077,-0.3454141914844513,-0.255664199590683
1774159264483987000,9.401987060546874,0.14390863478183746,-0.2414870709180832,-0.30264344811439514
1774159264503980000,9.42197998046875,0.22262988984584808,-0.0994773581624031,-0.3593607544898987
1774159264523972900,9.441972900390626,0.2197771668434143,-0.11844619363546371,-0.29959431290626526
1774159264543965700,9.461965576171876,0.17511872947216034,-0.014076922088861465,-0.27626436948776245
1774159264563958800,9.481958740234376,0.11824193596839905,0.04577327519655228,-0.2305780053138733
1774159264583953000,9.501952880859376,-0.02217952534556389,0.11505768448114395,-0.2693392038345337
1774159264603945700,9.52194580078125,-0.1484445035457611,0.10841799527406693,-0.27580422163009644
1774159264623938800,9.541938720703126,-0.13076567649841309,0.050421055406332016,-0.13424940407276154
1774159264643932000,9.561931884765626,-0.0882057473063469,0.03148218244314194,-0.21556371450424194
1774159264663925000,9.581925048828126,-0.06626086682081223,0.03103276528418064,-0.2515571713447571
1774159264683917800,9.601917724609375,-0.08588546514511108,-0.0849810317158699,-0.4397282302379608
1774159264703911000,9.621910888671875,-0.23093265295028687,-0.23296384513378143,-0.308733731508255
1774159264723903500,9.641903564453125,-0.4264775514602661,-0.3274586498737335,-0.4233376681804657
1774159264743896600,9.661896484375,-0.29403138160705566,-0.34615054726600647,-0.38849467039108276
1774159264763889700,9.6818896484375,-0.15038995444774628,-0.30993109941482544,-0.17423872649669647
1774159264783882500,9.701882568359375,-0.07835762202739716,-0.16894102096557617,-0.005047852639108896
1774159264803875300,9.721875244140625,-0.05777977034449577,0.014566367492079735,0.06314848363399506
1774159264823869400,9.741869384765625,-0.10178540647029877,0.0699184313416481,0.11373598873615265
1774159264843862500,9.761862548828125,-0.13522969186306,0.028839901089668274,0.07946082204580307
1774159264863855400,9.78185546875,-0.134966641664505,-0.08808982372283936,0.05805555731058121
1774159264883848400,9.801848388671875,-0.11350801587104797,-0.16651485860347748,0.09239628165960312
1774159264903841500,9.821841552734375,-0.1171412393450737,-0.15676245093345642,0.1039682999253273
1774159264923834600,9.841834716796875,-0.16148589551448822,-0.1641560047864914,0.1279361993074417
1774159264943827500,9.861827392578125,-0.16664914786815643,-0.09834848344326019,0.21798905730247498
1774159264963820500,9.881820556640625,-0.19187887012958527,-0.03717887029051781,0.25149962306022644
1774159264983813600,9.901813720703124,-0.2503712475299835,-0.01804659515619278,0.2616448402404785
1774159265003806500,9.921806396484374,-0.21747756004333496,-0.04443709924817085,0.2913786470890045
1774159265023799300,9.94179931640625,-0.12652474641799927,-0.13142111897468567,0.319576621055603
1774159265043792400,9.96179248046875,-0.10821272432804108,-0.05282999947667122,0.28209108114242554
1774159265063786500,9.981786376953124,-0.07406460493803024,-0.05519275739789009,0.2655336856842041
1774159265083779300,10.001779296875,-0.03284519538283348,-0.17241241037845612,0.16675367951393127
1774159265103772400,10.0217724609375,-0.1281341314315796,-0.11978311836719513,0.08163437247276306
1774159265123765500,10.041765625,-0.21268147230148315,-0.06370294094085693,0.2279496043920517
1774159265143758600,10.061758544921876,-0.13052350282669067,-0.007103878539055586,0.11930940300226212
1774159265163751400,10.08175146484375,-0.04740012437105179,-0.0377788245677948,-0.04725677892565727
1774159265183744500,10.10174462890625,0.007970849052071571,-0.20603090524673462,-0.15391916036605835
1774159265203737600,10.121737548828126,0.07647030055522919,-0.25597864389419556,-0.1783469170331955
1774159265223730700,10.141730712890626,0.17144112288951874,-0.259477823972702,-0.11458245664834976
1774159265243723500,10.1617236328125,0.2081286907196045,-0.2280818521976471,-0.024799449369311333
1774159265263716400,10.18171630859375,0.3111967444419861,-0.11562434583902359,-0.09920798242092133
1774159265283709400,10.20170947265625,0.39116010069847107,-0.12439040094614029,-0.21804416179656982
1774159265303703600,10.22170361328125,0.2595507800579071,-0.20017483830451965,-0.3081607520580292
1774159265323696400,10.2416962890625,0.15488101541996002,-0.15914899110794067,-0.22369599342346191
1774159265343689500,10.261689453125,0.11683070659637451,-0.026288915425539017,-0.0955733135342598
1774159265363682600,10.2816826171875,0.061601124703884125,0.14345401525497437,-0.10600212216377258
1774159265383675400,10.30167529296875,0.06522489339113235,0.18489260971546173,-0.1333250105381012
1774159265403668500,10.32166845703125,0.2626478970050812,0.22362399101257324,-0.14392971992492676
1774159265423661600,10.34166162109375,0.321815550327301,0.43220627307891846,-0.09414764493703842
1774159265443654700,10.361654541015625,0.22788427770137787,0.5718792676925659,-0.043935857713222504
1774159265463647500,10.3816474609375,-0.024731777608394623,0.3598836362361908,-0.15707886219024658
1774159265483640300,10.401640380859375,0.3729132115840912,0.2888523042201996,-0.07497301697731018
1774159265503633400,10.42163330078125,0.2511167824268341,0.7288650274276733,-0.0764477550983429
1774159265523627500,10.44162744140625,0.17070718109607697,0.3422304093837738,0.07801096886396408
1774159265543620400,10.461620361328125,0.1110016480088234,0.3260352909564972,0.13512586057186127
1774159265563613400,10.481613525390625,-0.097850002348423,0.25134268403053284,-0.0005233702249825001
1774159265583606500,10.5016064453125,-0.10207481682300568,0.23146522045135498,-0.10532831400632858
1774159265603599600,10.521599609375,-0.06237618997693062,0.2524544596672058,-0.25957340002059937
1774159265623592400,10.541592529296874,-0.060846030712127686,0.20048917829990387,-0.4285890460014343
1774159265643585500,10.56158544921875,0.09142766147851944,0.12896199524402618,-0.418221116065979
1774159265663578600,10.58157861328125,0.07802876085042953,-0.03508206456899643,-0.11789856851100922
1774159265683571500,10.601571533203124,-0.004903527442365885,-0.008195508271455765,0.17268234491348267
1774159265703564300,10.621564208984376,-0.08548785001039505,0.08426458388566971,-0.037598803639411926
1774159265723558700,10.64155859375,-0.12996581196784973,0.09191035479307175,0.04601788520812988
1774159265743551700,10.6615517578125,-0.13568292558193207,0.1215922087430954,0.10125155001878738
1774159265763544800,10.681544921875,-0.08158072829246521,-0.04217451438307762,0.24463430047035217
1774159265783537700,10.70153759765625,-0.008730046451091766,-0.0984405130147934,0.3264508545398712
1774159265803530800,10.72153076171875,-0.10099807381629944,-0.1396552324295044,0.3995535969734192
1774159265823523800,10.74152392578125,-0.03121722675859928,-0.06776613742113113,0.3019373416900635
1774159265843516700,10.7615166015625,0.01486013364046812,0.05494781956076622,0.19506002962589264
1774159265863509800,10.781509765625,-0.048993270844221115,-0.09627816081047058,0.21259655058383942
1774159265883502800,10.8015029296875,-0.10661908984184265,-0.2668311595916748,0.20528188347816467
1774159265903495700,10.82149560546875,-0.021151425316929817,-0.6298778057098389,0.5582895278930664
1774159265923489800,10.84148974609375,-0.2646007537841797,0.08461537212133408,0.024565979838371277
1774159265943482600,10.861482666015625,0.015053963288664818,-0.12652777135372162,0.20656433701515198
1774159265963475700,10.881475830078125,0.035017818212509155,-0.2746219038963318,0.29685482382774353
1774159265983468800,10.90146875,0.016284340992569923,-0.25480765104293823,0.23604774475097656
1774159266003461600,10.921461669921875,0.02661024034023285,-0.3194241523742676,0.27277621626853943
1774159266023454700,10.941454833984375,-0.006228855811059475,-0.32191202044487,0.3176136910915375
1774159266043447800,10.96144775390625,-0.14152173697948456,-0.21461917459964752,0.21861757338047028
1774159266063441000,10.98144091796875,-0.17140723764896393,-0.24396513402462006,0.09228624403476715
1774159266083433700,11.001433837890625,-0.16871275007724762,-0.1868268996477127,-0.09619102627038956
1774159266103426800,11.0214267578125,-0.010015269741415977,-0.2502967119216919,-0.09336009621620178
1774159266123420700,11.041420654296875,0.06390611827373505,-0.2928767204284668,-0.09264537692070007
1774159266143413800,11.061413818359375,0.032247789204120636,-0.1129026785492897,-0.1729751080274582
1774159266163406600,11.081406494140625,0.03418366611003876,-0.002033587545156479,-0.17920547723770142
1774159266183399700,11.101399658203125,0.09797102957963943,0.14851616322994232,-0.21263103187084198
1774159266203392800,11.121392822265625,0.17423231899738312,0.3248699903488159,-0.23130908608436584
1774159266223385900,11.1413857421875,0.15321406722068787,0.41626429557800293,-0.2416914403438568
1774159266243378700,11.161378662109374,0.07484929263591766,0.4815022647380829,-0.26823168992996216
1774159266263371800,11.181371826171874,0.04375794902443886,0.43242347240448,-0.18370579183101654
1774159266283364900,11.20136474609375,0.07396192103624344,0.3166808784008026,-0.06182888150215149
1774159266303357700,11.221357666015624,0.12883260846138,0.35245075821876526,-0.05973440036177635
1774159266323351600,11.2413515625,0.20994573831558228,0.36498314142227173,0.03131736069917679
1774159266343344600,11.2613447265625,0.20737774670124054,0.17653192579746246,0.06352228671312332
1774159266363337700,11.281337646484374,0.0812889039516449,0.3274090886116028,-0.09000527858734131
1774159266383330600,11.30133056640625,0.001806334126740694,0.12444400042295456,-0.04943308234214783
1774159266403323600,11.32132373046875,-0.11213957518339157,-0.015964031219482422,0.13406549394130707
1774159266423316700,11.341316650390626,-0.146681547164917,-0.011271238327026367,0.09047941118478775
1774159266443309800,11.361309814453126,-0.21426188945770264,0.02105877548456192,0.12156463414430618
1774159266463302700,11.381302734375,-0.22269661724567413,0.02132282964885235,0.1596761792898178
1774159266483295700,11.401295654296876,-0.1191398948431015,0.1127118319272995,0.09898591041564941
1774159266503288800,11.421288818359375,0.0034003357868641615,0.23945249617099762,0.07970976084470749
1774159266523282700,11.44128271484375,0.03538942337036133,0.2789360284805298,0.0808507427573204
1774159266543275500,11.461275634765625,-0.00006785336881875992,0.29667598009109497,0.08806846290826797
1774159266563268600,11.4812685546875,-0.08323856443166733,0.3032844364643097,0.06834405660629272
1774159266583261700,11.50126171875,-0.08220595866441727,0.3127812147140503,0.11458596587181091
1774159266603254800,11.5212548828125,0.12430661171674728,0.5951873660087585,-0.04799828305840492
1774159266623247600,11.54124755859375,-0.014449043199419975,-0.007977651432156563,0.3037404417991638
1774159266643240700,11.56124072265625,-0.04768117889761925,0.1358247697353363,0.3230263590812683
1774159266663233800,11.58123388671875,0.06059568375349045,0.11282666772603989,0.2538009285926819
1774159266683228000,11.601227783203125,0.1277686059474945,0.1648818850517273,0.25888702273368835
1774159266703220500,11.621220458984375,0.09411022067070007,0.07847099006175995,0.2666521966457367
1774159266723214000,11.641214111328125,0.08881181478500366,0.0248425155878067,0.24211452901363373
1774159266743207200,11.661207275390625,0.10025624185800552,-0.2796739935874939,0.3221278190612793
1774159266763200000,11.681199951171875,0.0284811370074749,-0.2603672742843628,0.2162630558013916
1774159266783193000,11.701193115234375,-0.02434084378182888,-0.3927198350429535,0.18624433875083923
1774159266803186200,11.721186279296875,-0.003676074091345072,-0.3134492337703705,0.14623814821243286
1774159266823179000,11.741178955078125,0.10194346308708191,-0.42952728271484375,0.14911343157291412
1774159266843172000,11.761172119140625,0.17882631719112396,-0.45881354808807373,0.09110865741968155
1774159266863166200,11.781166259765625,0.2872345745563507,-0.3402359187602997,0.04971789941191673
1774159266883159000,11.801158935546875,0.40549910068511963,-0.34617727994918823,0.04081199690699577
1774159266903152000,11.821152099609375,0.3994152247905731,-0.29826676845550537,-0.053455326706171036
1774159266923145000,11.84114501953125,0.22751069068908691,-0.4306810796260834,-0.15661780536174774
1774159266943138000,11.861137939453124,0.06376834213733673,-0.38548600673675537,-0.12273157387971878
1774159266963131100,11.881131103515624,0.06911878287792206,-0.548093318939209,-0.09432243555784225
1774159266983124000,11.9011240234375,0.03550740331411362,-0.42485275864601135,-0.18123653531074524
1774159267003117000,11.921116943359374,0.06410104036331177,-0.3869372010231018,-0.2230585217475891
1774159267023110100,11.941110107421874,0.06524752825498581,-0.3817882239818573,-0.14111384749412537
1774159267043104300,11.961104248046874,-0.008062126114964485,-0.5005703568458557,-0.06567804515361786
1774159267063097000,11.98109716796875,-0.03648319095373154,-0.47370049357414246,0.018389752134680748
1774159267083090200,12.001090087890624,-0.12201692163944244,-0.1981644481420517,-0.015050018206238747
1774159267103083000,12.0210830078125,-0.2491455376148224,-0.11259407550096512,0.04719553142786026
1774159267123076000,12.041076171875,-0.24991174042224884,-0.19349455833435059,-0.08337101340293884
1774159267143069000,12.06106884765625,-0.060528695583343506,-0.2402331829071045,-0.08074670284986496
1774159267163062000,12.08106201171875,0.0053411973640322685,-0.12929685413837433,-0.1719728261232376
1774159267183055000,12.10105517578125,-0.01913631707429886,-0.0798783004283905,0.08472684025764465
1774159267203049200,12.12104931640625,-0.054122667759656906,-0.05078519880771637,0.15023452043533325
1774159267223042000,12.1410419921875,-0.11116840690374374,-0.007831382565200329,0.14913275837898254
1774159267243035100,12.16103515625,-0.15592694282531738,0.0668911263346672,0.11706239730119705
1774159267263028200,12.1810283203125,-0.12067611515522003,0.09183654189109802,0.11810366064310074
1774159267283021300,12.201021240234375,-0.07413764297962189,0.0969223827123642,0.09880559146404266
1774159267303014100,12.22101416015625,-0.0000158094335347414,0.01863427460193634,0.06183086708188057
1774159267323007200,12.24100732421875,-0.0032265991903841496,0.1237126886844635,-0.11262796819210052
1774159267343001000,12.2610009765625,0.012473026290535927,-0.09062539786100388,0.20406131446361542
1774159267362994200,12.280994140625,-0.03317442163825035,-0.12460722774267197,0.19349829852581024
1774159267382987000,12.300987060546875,-0.04903023689985275,-0.21965540945529938,0.10916446149349213
1774159267402980000,12.32097998046875,-0.05441625416278839,-0.24289967119693756,0.031609829515218735
1774159267422973200,12.34097314453125,-0.04930230975151062,-0.29304346442222595,0.028205465525388718
1774159267442966300,12.36096630859375,-0.08837295323610306,-0.2712353467941284,-0.008722787722945213
1774159267462959000,12.380958984375,-0.10044947266578674,-0.20438016951084137,-0.052096232771873474
1774159267482952200,12.4009521484375,-0.04752339422702789,-0.15121133625507355,-0.1873510777950287
1774159267502946000,12.420946044921875,0.03588007763028145,-0.1790103316307068,-0.26619210839271545
1774159267522939100,12.440939208984375,0.12953786551952362,-0.16972526907920837,-0.3512634038925171
1774159267542932000,12.460931884765625,0.21643421053886414,-0.2234734296798706,-0.160545215010643
1774159267562925000,12.480925048828125,-0.056861624121665955,-0.08429913222789764,-0.34262654185295105
1774159267582918100,12.500918212890625,-0.020077496767044067,-0.19837281107902527,-0.2831231653690338
1774159267602911200,12.5209111328125,-0.04626293107867241,-0.06057506054639816,-0.12156212329864502
1774159267622904000,12.540904052734374,-0.17150288820266724,-0.022959189489483833,-0.0517326295375824
1774159267642897200,12.560897216796874,-0.17049658298492432,0.0327485129237175,-0.03771395981311798
1774159267662891300,12.580891357421875,-0.11572265625,0.1262601912021637,0.09258648753166199
1774159267682884000,12.600884033203124,-0.10068445652723312,0.022001635283231735,0.263823002576828
1774159267702877000,12.620876953125,-0.07355274260044098,-0.2169768512248993,0.4068657159805298
1774159267722869800,12.640869873046874,-0.14077888429164886,0.03425448387861252,0.4923117160797119
1774159267742862600,12.660862548828124,-0.2190864086151123,0.6543307304382324,0.4708881378173828
1774159267762855700,12.680855712890626,-0.3324081301689148,1.2955167293548584,0.1734205186367035
1774159267782848500,12.7008486328125,-0.14711959660053253,2.523759603500366,-0.0800996720790863
1774159267802841600,12.720841552734376,0.19885294139385223,1.8308546543121338,-0.5710578560829163
1774159267822835700,12.740835693359376,0.35774967074394226,1.3420687913894653,-0.20707519352436066
1774159267842828800,12.760828857421876,0.2906438112258911,0.3098922073841095,0.32682517170906067
1774159267862822000,12.78082177734375,0.2560301125049591,-0.7490531206130981,0.8283822536468506
1774159267882814700,12.800814697265626,0.33129405975341797,-1.1422468423843384,0.80646151304245
1774159267902807800,12.820807861328126,0.5096008777618408,-0.6788446307182312,0.38476473093032837
1774159267922801000,12.84080078125,0.5497370958328247,0.10236664116382599,-0.04276539757847786
1774159267942793700,12.860793701171875,0.4254384934902191,0.027092982083559036,-0.15607157349586487
1774159267962787600,12.88078759765625,0.3743608891963959,-0.188291996717453,0.07277864962816238
1774159267982780700,12.90078076171875,0.2782295346260071,-0.44800952076911926,0.21153561770915985
1774159268002773800,12.920773681640625,0.22536511719226837,-0.4668043255805969,0.2836143970489502
1774159268022766600,12.9407666015625,0.12734024226665497,-0.3703565001487732,0.3411625325679779
1774159268042759700,12.960759765625,-0.05091175436973572,-0.3066137433052063,0.3897470533847809
1774159268062752800,12.980752685546875,-0.06716928631067276,-0.3962187170982361,0.3541666865348816
1774159268082745900,13.000745849609375,0.056595899164676666,-0.26944872736930847,0.31043654680252075
1774159268102739700,13.02073974609375,0.07578536123037338,-0.09434103965759277,0.3116458058357239
1774159268122732500,13.040732666015625,0.10128021985292435,-0.09591894596815109,0.3225260376930237
1774159268142725600,13.0607255859375,0.13844549655914307,-0.08505494892597198,0.353329062461853
1774159268162718700,13.08071875,0.159471333026886,-0.1783483475446701,0.3736534118652344
1774159268182711600,13.100711669921875,0.16216795146465302,-0.2370109260082245,0.4229525625705719
1774159268202704600,13.12070458984375,0.1666184812784195,-0.23721450567245483,0.44191402196884155
1774159268222697700,13.14069775390625,0.17570917308330536,-0.2790508568286896,0.5106449723243713
1774159268242691800,13.16069189453125,0.20077024400234222,-0.5253521203994751,0.6085977554321289
1774159268262684700,13.1806845703125,0.24341920018196106,-0.6593320965766907,0.6233636140823364
1774159268282677800,13.200677734375,0.3363071382045746,-0.5432710647583008,0.5529777407646179
1774159268302670600,13.220670654296875,0.41663020849227905,-0.4810166656970978,0.6053938865661621
1774159268322663700,13.24066357421875,0.4505993127822876,-0.6826801300048828,0.7445958852767944
1774159268342656500,13.260656494140624,0.4355264902114868,-0.8271994590759277,0.8623019456863403
1774159268362649600,13.280649658203124,0.39962631464004517,-0.6632102131843567,0.9676429629325867
1774159268382643700,13.300643798828125,0.3414902985095978,-0.8397825956344604,0.9332259297370911
1774159268402636800,13.32063671875,0.20049859583377838,-0.42499077320098877,0.8443536758422852
1774159268422629600,13.340629638671874,0.05517442151904106,-0.2659754157066345,0.7946805953979492
1774159268442622700,13.360622802734374,-0.05145282298326492,-0.27344992756843567,0.8056381940841675
1774159268462615800,13.38061572265625,-0.03473391756415367,-0.28938376903533936,0.7385699152946472
1774159268482609000,13.40060888671875,0.03835977613925934,-0.31330254673957825,0.5105459094047546
1774159268502601700,13.420601806640626,0.11353500187397003,-0.04774373397231102,0.3333890736103058
1774159268522595600,13.440595703125,0.12333108484745026,0.02417108416557312,0.24416515231132507
1774159268542588700,13.460588623046876,0.16185148060321808,-0.18822766840457916,0.17855672538280487
1774159268562581800,13.480581787109376,0.21908335387706757,-0.33745497465133667,-0.00931837223470211
1774159268582574600,13.50057470703125,0.23278413712978363,-0.389616996049881,-0.3142068684101105
1774159268602567700,13.520567626953126,0.1674545705318451,-0.0889476090669632,-0.6722939610481262
1774159268622560800,13.540560791015626,0.06788545846939087,0.13042010366916656,-0.796461820602417
1774159268642553900,13.560553955078126,0.0030160192400217056,0.03523782640695572,-0.711750864982605
1774159268662547700,13.580547607421876,-0.02526181936264038,-0.03312652185559273,-0.5777915120124817
1774159268682540500,13.60054052734375,-0.03556211665272713,-0.0776176005601883,-0.43541690707206726
1774159268702533600,13.62053369140625,-0.09530919045209885,0.06362788379192352,-0.38036659359931946
1774159268722527000,13.64052685546875,-0.17907628417015076,0.21537670493125916,-0.5501675605773926
1774159268742519800,13.660519775390625,-0.2740219235420227,0.37755218148231506,-0.7426751852035522
1774159268762513000,13.680512939453125,-0.37716493010520935,0.5599983930587769,-0.7808128595352173
1774159268782506000,13.700506103515625,-0.4214715361595154,0.6716605424880981,-0.6531532406806946
1774159268802500000,13.7205,-0.4250657558441162,0.9920958280563354,-0.6044437885284424
1774159268822493000,13.740492919921875,-0.3076178729534149,1.4408825635910034,-0.5709089636802673
1774159268842486000,13.760486083984375,-0.1021854355931282,1.7827353477478027,-0.44258183240890503
1774159268862478800,13.780478759765625,0.0872131884098053,1.7979025840759277,-0.08725347369909286
1774159268882472000,13.800471923828125,0.12974891066551208,1.466418743133545,0.12828971445560455
1774159268902464800,13.82046484375,0.08235569298267365,1.443458080291748,-0.08054396510124207
1774159268922459000,13.840458984375,0.16640232503414154,1.7077792882919312,-0.40542176365852356
1774159268942452000,13.860451904296875,0.2989407181739807,1.505745530128479,-0.5256016850471497
1774159268962445000,13.880445068359375,0.30988770723342896,0.9817551970481873,-0.46753695607185364
1774159268982438000,13.90043798828125,0.23832200467586517,1.0042829513549805,-0.23431651294231415
1774159269002431000,13.920430908203125,0.2989257276058197,1.3935319185256958,0.038506150245666504
1774159269022424000,13.940424072265625,0.27218392491340637,1.259553074836731,0.20909547805786133
1774159269042417200,13.960417236328125,0.18390895426273346,0.8154873251914978,0.24201011657714844
1774159269062410800,13.98041064453125,0.07956352084875107,0.659525454044342,0.2163536250591278
1774159269082403800,14.00040380859375,-0.013331005349755287,0.5168812274932861,0.2741170823574066
1774159269102397000,14.02039697265625,-0.05906613916158676,0.3425154685974121,0.23523442447185516
1774159269122390000,14.04039013671875,0.030740976333618164,0.19716252386569977,0.10765861719846725
1774159269142382800,14.0603828125,0.2529124319553375,-0.07603007555007935,0.015940828248858452
1774159269162376000,14.0803759765625,0.3920220136642456,-0.1402876079082489,-0.03554858639836311
1774159269182370000,14.1003701171875,0.2592853009700775,0.21576619148254395,-0.10008202493190765
1774159269202363100,14.120363037109374,0.0966089591383934,0.26538774371147156,-0.10021219402551651
1774159269222356000,14.14035595703125,-0.02107168734073639,0.29915663599967957,-0.09865817427635193
1774159269242348800,14.160348876953124,-0.03407140076160431,0.2479884773492813,-0.1760893315076828
1774159269262342000,14.180341796875,-0.08108282834291458,0.2635403275489807,-0.3436644673347473
1774159269282335000,14.2003349609375,-0.045657768845558167,0.1308833360671997,-0.5803535580635071
1774159269302327800,14.220327880859376,0.06838472932577133,0.3040417730808258,-0.6413288116455078
1774159269322322000,14.240322021484374,0.2407686412334442,0.5651831030845642,-0.3711097836494446
1774159269342315000,14.26031494140625,0.30103644728660583,0.35350775718688965,-0.15267068147659302
1774159269362308000,14.28030810546875,0.05307571589946747,0.09517524391412735,-0.07835230231285095
1774159269382301000,14.300301025390626,-0.1172027438879013,-0.5695401430130005,-0.06535535305738449
1774159269402294000,14.3202939453125,-0.16074572503566742,-1.0000633001327515,-0.10080096870660782
1774159269422287000,14.340287109375,-0.3129537105560303,-1.1664713621139526,-0.09232903271913528
1774159269442281000,14.360281005859376,-0.5188643932342529,-1.2357782125473022,0.06137295067310333
1774159269462273800,14.380273681640626,-0.5634859800338745,-0.7692389488220215,0.32439443469047546
1774159269482267000,14.400266845703126,-0.4987882971763611,-0.3398014008998871,0.65949946641922
1774159269502260000,14.420260009765625,-0.6259928345680237,-0.8190711140632629,0.8407322764396667
1774159269522253000,14.440253173828125,-0.7876570224761963,-1.477447271347046,0.710845410823822
1774159269542246000,14.460245849609375,-0.7902970314025879,-1.554935097694397,0.4964925944805145
1774159269562240000,14.480239990234375,-0.6573507785797119,-1.338731288909912,0.26513296365737915
1774159269582232800,14.50023291015625,-0.6051793694496155,-1.3688664436340332,0.04124298319220543
1774159269602226000,14.520225830078125,-0.5950025320053101,-0.8431851863861084,-0.05686197802424431
1774159269622218800,14.54021875,-0.5873947739601135,-0.18598005175590515,-0.14867191016674042
1774159269642211800,14.5602119140625,-0.5918803215026855,-0.4860013425350189,-0.08755386620759964
1774159269662205000,14.580204833984375,-0.5946117639541626,-0.6297503113746643,0.03480140119791031
1774159269682198000,14.600197998046875,-0.5859885215759277,-0.6074030995368958,0.06882894784212112
1774159269702192000,14.620192138671875,-0.5660083889961243,-0.37877026200294495,-0.010689394548535347
1774159269722185200,14.640185302734375,-0.576012372970581,-0.14084641635417938,-0.06418371200561523
1774159269742178000,14.660177978515625,-0.606435239315033,-0.10660184919834137,-0.0817941278219223
1774159269762171100,14.680171142578125,-0.5948724150657654,-0.1475982964038849,-0.12662512063980103
1774159269782164200,14.700164306640625,-0.52894127368927,-0.17065484821796417,-0.13104228675365448
1774159269802157000,14.720156982421875,-0.4386301040649414,-0.1729891449213028,-0.12340375781059265
1774159269822151200,14.740151123046875,-0.3590962588787079,-0.12746113538742065,-0.13154339790344238
1774159269842144000,14.76014404296875,-0.25147324800491333,0.04403477907180786,-0.11537246406078339
1774159269862137000,14.78013720703125,-0.13900449872016907,0.20149044692516327,-0.007256378419697285
1774159269882130200,14.800130126953125,0.04832875728607178,0.17955917119979858,0.0935647264122963
1774159269902123000,14.820123046875,0.13717962801456451,-0.11848630756139755,0.18671654164791107
1774159269922116000,14.8401162109375,0.2903617322444916,-0.5030342936515808,0.2627902030944824
1774159269942110000,14.86010986328125,0.4450201094150543,-0.48472729325294495,0.16104815900325775
1774159269962103000,14.88010302734375,0.578434944152832,-0.03917894512414932,0.04696090891957283
1774159269982096000,14.900095947265624,0.71195387840271,0.29499551653862,-0.04929734393954277
1774159270002089000,14.9200888671875,0.7758580446243286,0.4132997989654541,-0.024100909009575844
1774159270022082000,14.94008203125,0.7788022756576538,0.41426971554756165,0.019647764042019844
1774159270042075100,14.9600751953125,0.7091891765594482,0.6355382800102234,0.09231887012720108
1774159270062069200,14.9800693359375,0.6037054657936096,0.9485352039337158,0.07574605941772461
1774159270082062000,15.00006201171875,0.49020254611968994,1.1481330394744873,-0.05101785436272621
1774159270102055200,15.02005517578125,0.4596124589443207,1.1691964864730835,-0.15405064821243286
1774159270122048300,15.04004833984375,0.5313225984573364,0.9889844059944153,-0.10168997943401337
1774159270142041000,15.060041015625,0.6209900379180908,0.8614038228988647,0.12442272901535034
1774159270162034000,15.080033935546876,0.6641260981559753,0.7363522052764893,0.2713383436203003
1774159270182028000,15.100028076171874,0.6057620644569397,0.48252737522125244,0.051027342677116394
1774159270202021000,15.120021240234376,0.5475900173187256,0.41851815581321716,-0.08269719779491425
1774159270222014200,15.14001416015625,0.5295771956443787,0.43075910210609436,0.07462097704410553
1774159270242007000,15.160007080078126,0.5111539959907532,0.4465005099773407,0.11439822614192963
1774159270262000000,15.180000244140626,0.46429887413978577,0.5081272721290588,-0.046464793384075165
1774159270281993200,15.1999931640625,0.5425761938095093,0.6671326160430908,-0.07786912471055984
1774159270301987000,15.219987060546876,0.5721535086631775,0.6997089385986328,0.20066982507705688
1774159270321980000,15.23997998046875,0.3803039789199829,0.12273753434419632,0.36972880363464355
1774159270341973000,15.259972900390625,0.14093169569969177,-0.10940326750278473,0.3042006194591522
1774159270361966000,15.279966064453125,-0.05271364003419876,0.2511488199234009,0.24561642110347748
1774159270381959000,15.299958984375,-0.0505056232213974,0.30141645669937134,0.17455919086933136
1774159270401952000,15.319951904296875,0.034403473138809204,0.005273634567856789,0.11945211887359619
1774159270421946000,15.339946044921875,0.13794787228107452,-0.2755911946296692,0.13393060863018036
1774159270441939200,15.359939208984375,0.18794938921928406,-0.33304363489151,0.02503800205886364
1774159270461932300,15.379932373046875,0.19216270744800568,-0.18760618567466736,-0.07937160134315491
1774159270481925000,15.399925048828125,0.15614020824432373,-0.011185472831130028,-0.01803164929151535
1774159270501918000,15.41991796875,0.0662664920091629,-0.13648153841495514,-0.008216135203838348
1774159270521912000,15.439912109375,-0.05465678498148918,-0.27767202258110046,-0.33911338448524475
1774159270541905200,15.4599052734375,-0.21825285255908966,0.14751781523227692,-0.4470382332801819
1774159270561898000,15.47989794921875,-0.37130117416381836,-0.02726791799068451,-0.395158588886261
1774159270581891000,15.49989111328125,-0.36248818039894104,-0.29355588555336,-0.34060895442962646
1774159270601884200,15.51988427734375,-0.34868335723876953,-0.14893962442874908,-0.15953271090984344
1774159270621877200,15.539877197265625,-0.36366981267929077,-0.45849934220314026,-0.0927443727850914
1774159270641870800,15.559870849609375,-0.36924222111701965,-0.9270204901695251,-0.2316705733537674
1774159270661864000,15.579864013671875,-0.3923887312412262,-1.3031989336013794,-0.2747039198875427
1774159270681857000,15.59985693359375,-0.4178386926651001,-1.1494144201278687,0.09621181339025497
1774159270701850000,15.61985009765625,-0.37099605798721313,-0.706188976764679,0.5001000165939331
1774159270721843200,15.63984326171875,-0.29298272728919983,-0.3877350091934204,0.7362678647041321
1774159270741836300,15.659836181640625,-0.3171677887439728,-0.6137623190879822,0.7178589105606079
1774159270761830400,15.679830322265625,-0.3547572195529938,-1.198024868965149,0.47691336274147034
1774159270781823500,15.699823486328125,-0.23201262950897217,-1.921033501625061,0.054233383387327194
1774159270801816300,15.71981640625,-0.12114384025335312,-1.4520506858825684,-0.28109684586524963
1774159270821809400,15.739809326171875,-0.18631187081336975,-1.0772688388824463,-0.3512813150882721
1774159270841802200,15.75980224609375,-0.3334101438522339,-1.4332494735717773,-0.2645505666732788
1774159270861795300,15.77979541015625,-0.3980402946472168,-1.412271499633789,-0.08825153112411499
1774159270881789200,15.7997890625,-0.33587995171546936,-1.4171000719070435,-0.07646418362855911
1774159270901782300,15.8197822265625,-0.2662994861602783,-1.3152060508728027,-0.06604650616645813
1774159270921775400,15.839775390625,-0.22100681066513062,-0.9692397117614746,-0.003486885456368327
1774159270941768400,15.8597685546875,-0.18204054236412048,-0.6334750056266785,0.09535161405801773
1774159270961761300,15.87976123046875,-0.12380178272724152,-0.5226039886474609,0.18160250782966614
1774159270981755100,15.899755126953124,-0.01303606852889061,-0.4644280672073364,0.15553569793701172
1774159271001748200,15.919748291015624,0.13525390625,-0.3660600185394287,-0.052536435425281525
1774159271021741300,15.9397412109375,0.23906831443309784,0.08857827633619308,-0.15134339034557343
1774159271041734100,15.959734130859376,0.29540133476257324,0.22537420690059662,-0.10443607717752457
1774159271061727200,15.979727294921876,0.3203655481338501,0.07013820856809616,0.05447997897863388
1774159271081720300,15.99972021484375,0.32031726837158203,-0.20970235764980316,0.1889331042766571
1774159271101714400,16.01971435546875,0.36894896626472473,0.026754846796393394,0.08958538621664047
1774159271121707500,16.03970751953125,0.47565752267837524,0.7246807813644409,-0.2445671260356903
1774159271141700400,16.059700439453124,0.43568724393844604,1.059409499168396,-0.5364693403244019
1774159271161693400,16.079693359375,0.4212206304073334,0.8218129277229309,-0.6655449867248535
1774159271181686500,16.0996865234375,0.45610758662223816,0.42345017194747925,-0.5238474607467651
1774159271201680400,16.119680419921874,0.5037553310394287,0.3257891535758972,-0.12567594647407532
1774159271221673200,16.139673095703124,0.4964900314807892,0.40832704305648804,0.15210172533988953
1774159271241666300,16.159666259765626,0.3477232754230499,0.7186607122421265,0.18763595819473267
1774159271261659400,16.179659423828124,0.21876826882362366,0.8894558548927307,0.2500414550304413
1774159271281652200,16.19965234375,0.07905369997024536,0.9074419140815735,0.31331148743629456
1774159271301645300,16.219645263671875,-0.002213460858911276,0.9558219313621521,0.28649744391441345
1774159271321639400,16.239639404296874,0.010128386318683624,1.0474638938903809,0.19192849099636078
1774159271341632300,16.25963232421875,0.12141454219818115,1.0816519260406494,0.11096470803022385
1774159271361625300,16.279625244140625,0.20587188005447388,1.133405327796936,0.07675329595804214
1774159271381618200,16.2996181640625,0.29038935899734497,1.1090502738952637,0.12421869486570358
1774159271401611300,16.319611328125,0.35247278213500977,0.9971036911010742,0.20181764662265778
1774159271421605400,16.33960546875,0.3503853976726532,0.9009677767753601,0.17475859820842743
1774159271441598500,16.359598388671873,0.2811093032360077,0.900466799736023,0.10308367013931274
1774159271461591300,16.37959130859375,0.19654753804206848,0.9522835612297058,0.07956992089748383
1774159271481584400,16.39958447265625,0.16162654757499695,0.9535627365112305,0.049574632197618484
1774159271501577500,16.419577392578127,0.16664041578769684,0.8797784447669983,0.03371965512633324
1774159271521570600,16.439570556640625,0.1498940885066986,0.7542044520378113,0.10995882004499435
1774159271541564200,16.459564208984375,0.09142691642045975,0.6624341011047363,0.19115589559078217
1774159271561557200,16.47955712890625,0.04321670904755592,0.5642301440238953,0.08588182926177979
1774159271581550300,16.49955029296875,0.039188943803310394,0.41017425060272217,-0.09171825647354126
1774159271601543400,16.51954345703125,0.0800979807972908,0.2573184669017792,-0.08014754951000214
1774159271621536300,16.539536376953127,0.0859518051147461,0.12881611287593842,-0.005945691838860512
1774159271641530400,16.5595302734375,0.05323629826307297,-0.006453897804021835,-0.06008657068014145
1774159271661523500,16.5795234375,-0.010902742855250835,-0.19602835178375244,-0.2117868810892105
1774159271681516300,16.599516357421876,-0.06694407761096954,-0.4681081175804138,-0.4629143178462982
1774159271701509000,16.619509033203126,-0.15923242270946503,-0.6055769920349121,-0.65476393699646
1774159271721501700,16.639501708984376,-0.1958010494709015,-0.5759755373001099,-0.48648175597190857
1774159271741494500,16.65949462890625,-0.16892661154270172,-0.6731672883033752,-0.31576189398765564
1774159271761488600,16.679488525390624,-0.0710754543542862,-0.6908824443817139,-0.2873689830303192
1774159271781481500,16.6994814453125,0.03629644960165024,-0.7117756605148315,-0.13056056201457977
1774159271801474600,16.719474609375,0.021816493943333626,-0.9399913549423218,0.057210903614759445
1774159271821467600,16.739467529296874,-0.035737182945013046,-1.0114272832870483,0.17533652484416962
1774159271841460500,16.75946044921875,-0.1682242751121521,-1.0957282781600952,0.1549895703792572
1774159271861454600,16.77945458984375,-0.4292326271533966,-1.0326082706451416,0.19630101323127747
1774159271881447700,16.79944775390625,-0.5488004088401794,-0.4346748888492584,0.3030548393726349
1774159271901440500,16.8194404296875,-0.6257734894752502,0.0464816577732563,0.2624398469924927
1774159271921433600,16.83943359375,-0.5359709858894348,-0.16366758942604065,-0.009740731678903103
1774159271941426400,16.859426513671874,-0.36105063557624817,-0.6668632626533508,-0.3182845711708069
1774159271961420500,16.879420654296876,-0.21679310500621796,-0.5102306008338928,-0.3950881063938141
1774159271981413600,16.89941357421875,-0.17964085936546326,-0.47610634565353394,-0.367720365524292
1774159272001406700,16.91940673828125,-0.18864451348781586,-0.517049252986908,-0.2688901424407959
1774159272021399600,16.939399658203126,-0.1976829618215561,-0.3995174765586853,-0.14628268778324127
1774159272041392600,16.959392578125,-0.24462629854679108,-0.37620246410369873,-0.055369675159454346
1774159272061385700,16.9793857421875,-0.2504441440105438,-0.46344801783561707,0.003031440544873476
1774159272081379600,16.999379638671876,-0.3037826418876648,-0.32898029685020447,-0.023714212700724602
1774159272101372400,17.019372314453125,-0.3669458031654358,-0.2773871421813965,-0.060688529163599014
1774159272121365500,17.039365478515624,-0.42485302686691284,-0.22145026922225952,-0.11658969521522522
1774159272141358600,17.059358642578125,-0.47073158621788025,-0.09477496892213821,-0.07821497321128845
1774159272161351700,17.0793515625,-0.5204232931137085,-0.18939369916915894,0.02649509906768799
1774159272181345500,17.099345458984374,-0.49862492084503174,-0.23445391654968262,0.021700996905565262
1774159272201338600,17.119338623046875,-0.4005664885044098,0.16685132682323456,-0.0258706733584404
1774159272221331700,17.139331787109374,-0.24836038053035736,0.1650712788105011,0.032939039170742035
1774159272241324500,17.159324462890623,-0.09201771020889282,-0.03014337457716465,0.036818090826272964
1774159272261317400,17.1793173828125,0.0072695366106927395,-0.06996805220842361,-0.006560872308909893
1774159272281311500,17.1993115234375,0.08860450237989426,-0.058413565158843994,-0.05034434050321579
1774159272301304600,17.2193046875,0.18475449085235596,-0.21174059808254242,-0.10437658429145813
1774159272321297700,17.239297607421875,0.38196510076522827,-0.3290971517562866,-0.13718892633914948
1774159272341290500,17.25929052734375,0.5298919677734375,0.12507128715515137,-0.1909114420413971
1774159272361283600,17.27928369140625,0.5841453075408936,0.6096354126930237,-0.28756195306777954
1774159272381276700,17.299276611328125,0.5487713813781738,0.7697777152061462,-0.3076333701610565
1774159272401270500,17.3192705078125,0.5551813244819641,0.5155706405639648,-0.1465124934911728
1774159272421263400,17.339263427734377,0.536906898021698,0.2891182005405426,0.09136947244405746
1774159272441256400,17.35925634765625,0.417949378490448,0.7172335982322693,0.1628926545381546
1774159272461249500,17.37924951171875,0.2938341200351715,1.223753809928894,0.07064352929592133
1774159272481242600,17.39924267578125,0.21422304213047028,1.4670330286026,0.023520704358816147
1774159272501236700,17.41923681640625,0.3300512731075287,1.2972710132598877,0.079435333609581
1774159272521229600,17.4392294921875,0.33167773485183716,0.8607854843139648,0.32249560952186584
1774159272541222700,17.45922265625,0.1764306277036667,0.6487845182418823,0.5022057294845581
1774159272561215700,17.4792158203125,0.009189516305923462,0.9886243939399719,0.4034644067287445
1774159272581208600,17.49920849609375,-0.10290518403053284,1.073746919631958,0.3365844190120697
1774159272601202400,17.519202392578126,-0.12370806932449341,0.9766449928283691,0.3486407697200775
1774159272621195500,17.539195556640625,-0.05385048687458038,0.9918302297592163,0.40106770396232605
1774159272641188600,17.559188720703126,0.031086772680282593,0.9539871215820312,0.35253313183784485
1774159272661181700,17.579181640625,0.10890496522188187,0.7325177788734436,0.2375403493642807
1774159272681174500,17.599174560546874,0.15607129037380219,0.5187796950340271,0.25552934408187866
1774159272701168600,17.619168701171876,0.197536438703537,0.41722536087036133,0.23497240245342255
1774159272721162000,17.639161865234374,0.19739370048046112,0.34057319164276123,0.14184752106666565
1774159272741155000,17.659155029296876,0.16764768958091736,0.2986716032028198,0.07583136111497879
1774159272761148000,17.67914794921875,0.12285512685775757,0.21883441507816315,0.06051461398601532
1774159272781141000,17.69914111328125,0.08660521358251572,0.1478150486946106,0.05803466960787773
1774159272801135000,17.719135009765626,0.07387499511241913,0.12066330760717392,0.015205785632133484
1774159272821128200,17.739128173828124,0.13113035261631012,0.0823221281170845,-0.06516546756029129
1774159272841121000,17.75912109375,0.17228330671787262,-0.07539822906255722,-0.02817782573401928
1774159272861114000,17.779114013671876,0.1516081690788269,-0.2074892520904541,0.008315847255289555
1774159272881107200,17.799107177734374,0.11986839026212692,-0.1634385585784912,-0.054122842848300934
1774159272901100000,17.81910009765625,0.14080779254436493,-0.23616556823253632,-0.25848573446273804
1774159272921094100,17.83909423828125,0.14145921170711517,-0.5771020650863647,-0.28035134077072144
1774159272941087000,17.8590869140625,0.13089238107204437,-0.8274432420730591,-0.31241002678871155
1774159272961080000,17.879080078125,0.15288704633712769,-0.6880738735198975,-0.3980334401130676
1774159272981073200,17.8990732421875,0.1518854796886444,-0.5302088260650635,-0.17491191625595093
1774159273001066000,17.91906591796875,-0.05197060480713844,-0.8444033861160278,0.1544487029314041
1774159273021060000,17.93906005859375,-0.10202820599079132,-0.9206900596618652,0.26177453994750977
1774159273041053200,17.95905322265625,-0.1875457465648651,-1.252895474433899,0.15571539103984833
1774159273061046000,17.9790458984375,-0.22708283364772797,-1.5004091262817383,0.08839491754770279
1774159273081039000,17.9990390625,-0.19147492945194244,-1.1785436868667603,0.13020284473896027
1774159273101032000,18.019031982421875,-0.18824762105941772,-0.827010989189148,0.20876914262771606
1774159273121026000,18.039026123046874,-0.08554129302501678,-0.6446897983551025,0.10647125542163849
1774159273141019100,18.05901904296875,0.021928705275058746,-0.7666029334068298,-0.0902564525604248
1774159273161012200,18.07901220703125,0.03971942141652107,-0.9124008417129517,-0.15509803593158722
1774159273181005000,18.099005126953124,-0.030975425615906715,-0.8157671689987183,-0.09023600816726685
1774159273200998100,18.118998046875,-0.22478686273097992,-0.5430018305778503,0.030017204582691193
1774159273220992000,18.138991943359375,-0.41930869221687317,-0.33582603931427,0.04368684068322182
1774159273240985000,18.158985107421874,-0.5466042160987854,-0.09574224799871445,-0.020610691979527473
1774159273260978000,18.17897802734375,-0.5326334834098816,0.1812465935945511,-0.04808322712779045
1774159273280971000,18.198970947265625,-0.41301366686820984,0.15668660402297974,-0.04490761086344719
1774159273300964000,18.218964111328123,-0.33176112174987793,-0.08712179213762283,0.03597171977162361
1774159273320958200,18.238958251953125,-0.4017091393470764,-0.10685674846172333,0.09800603240728378
1774159273340951000,18.258950927734375,-0.48987704515457153,0.017567094415426254,0.09467540681362152
1774159273360944000,18.278944091796873,-0.49635806679725647,0.07125586271286011,0.03823221102356911
1774159273380937200,18.298937255859375,-0.452587753534317,0.09589902311563492,0.11839093267917633
1774159273400930000,18.318929931640625,-0.41964709758758545,-0.11074008792638779,0.047160256654024124
1774159273420924200,18.338924072265623,-0.354220986366272,-0.0009367752354592085,-0.1135217547416687
1774159273440917000,18.3589169921875,-0.29974183440208435,0.20183591544628143,-0.21466436982154846
1774159273460910000,18.37891015625,-0.28107523918151855,0.18505975604057312,-0.1523294746875763
1774159273480903200,18.398903076171877,-0.27845868468284607,0.07767876982688904,0.03629433736205101
1774159273500896000,18.41889599609375,-0.21680067479610443,-0.14748409390449524,-0.006069106049835682
1774159273520890000,18.43889013671875,0.03453709930181503,0.27788102626800537,-0.07594705373048782
1774159273540883000,18.458883056640627,0.2576625347137451,0.8992438912391663,-0.295921266078949
1774159273560876000,18.4788759765625,0.3719404339790344,0.9516745209693909,-0.62912517786026
1774159273580868900,18.498868896484375,0.500704288482666,1.0504053831100464,-0.7256173491477966
1774159273600862000,18.518862060546876,0.6258161067962646,0.8297516703605652,-0.4888707995414734
1774159273620856000,18.53885595703125,0.5551009774208069,0.6441308259963989,-0.13996243476867676
1774159273640849200,18.55884912109375,0.4639345407485962,1.2633095979690552,-0.10271679610013962
1774159273660842200,18.57884228515625,0.4260348081588745,1.9123681783676147,-0.2858274281024933
1774159273680835000,18.5988349609375,0.42122507095336914,1.8508504629135132,-0.26574596762657166
1774159273700828200,18.618828125,0.4276706874370575,1.3217236995697021,0.13803301751613617
1774159273720821500,18.638821533203124,0.36153849959373474,0.9424404501914978,0.4740549623966217
1774159273740814300,18.658814453125,0.2229023426771164,1.0194936990737915,0.3038298785686493
1774159273760807400,18.678807373046876,-0.020656485110521317,1.1971790790557861,-0.041367895901203156
1774159273780800300,18.69880029296875,-0.07914621382951736,1.4394224882125854,-0.05541422218084335
1774159273800793300,18.71879345703125,-0.013451091013848782,1.520296573638916,0.20095737278461456
1774159273820787500,18.738787353515626,0.04456716030836105,1.2867927551269531,0.355062335729599
1774159273840780500,18.758780517578124,0.10148743540048599,0.963345468044281,0.3665839731693268
1774159273860773600,18.778773681640626,0.15642136335372925,0.7948896288871765,0.25957998633384705
1774159273880766500,18.798766357421876,0.1895163208246231,0.7070839405059814,0.1676207035779953
1774159273900759600,18.818759521484374,0.2042686641216278,0.5746117234230042,0.1470073014497757
1774159273920753400,18.83875341796875,0.2097296565771103,0.42503055930137634,0.07813802361488342
1774159273940746500,18.85874658203125,0.20872807502746582,0.29626554250717163,-0.027667049318552017
1774159273960739300,18.8787392578125,0.21358537673950195,0.28582242131233215,-0.08150206506252289
1774159273980732400,18.898732421875,0.19752080738544464,0.4046552777290344,-0.1150653064250946
1774159274000725500,18.9187255859375,0.16089975833892822,0.4409977197647095,-0.1599440574645996
1774159274020719600,18.9387197265625,0.11447017639875412,0.28713274002075195,-0.20401939749717712
1774159274040712400,18.95871240234375,0.04337097704410553,0.07599394023418427,-0.25024059414863586
1774159274060705500,18.97870556640625,-0.031192313879728317,-0.09385226666927338,-0.19889035820960999
1774159274080698400,18.998698486328124,-0.000498889246955514,-0.14360742270946503,-0.23206810653209686
1774159274100691500,19.01869140625,0.11379870772361755,-0.30153968930244446,-0.5457162857055664
1774159274120685300,19.038685302734375,0.11651740223169327,-0.8573156595230103,-0.9300769567489624
1774159274140678400,19.058678466796874,0.03713248670101166,-1.5275905132293701,-1.0706462860107422
1774159274160671500,19.07867138671875,0.2016918808221817,-1.4113116264343262,-0.6724774241447449
1774159274180664600,19.09866455078125,0.34244054555892944,-1.051781415939331,-0.24135875701904297
1774159274200657400,19.118657470703123,0.32130685448646545,-1.0604314804077148,-0.2577914893627167
1774159274220651300,19.1386513671875,0.21464915573596954,-1.1771104335784912,-0.5004223585128784
1774159274240644400,19.158644287109375,0.09163209050893784,-1.2137415409088135,-0.44843539595603943
1774159274260637400,19.178637451171873,-0.09974361211061478,-1.2453476190567017,0.16093061864376068
1774159274280630300,19.19863037109375,-0.25161612033843994,-1.1285033226013184,0.7128162980079651
1774159274300624400,19.218624267578125,-0.276224821805954,-0.5656458139419556,0.8808736205101013
1774159274320617500,19.238617431640623,-0.36811840534210205,-0.1527491956949234,0.7947618365287781
1774159274340610600,19.258610595703125,-0.3594898283481598,-0.012286115437746048,0.498977392911911
1774159274360603400,19.278603271484375,-0.4174574613571167,0.0450698658823967,0.20010541379451752
1774159274380596500,19.298596435546877,-0.439311146736145,0.11144284904003143,0.03072204813361168
1774159274400590300,19.31859033203125,-0.3129373788833618,0.12963035702705383,-0.05463080480694771
1774159274420583400,19.33858349609375,-0.06497513502836227,-0.36370933055877686,-0.18848462402820587
1774159274440576500,19.358576416015627,-0.031139807775616646,-0.7871378064155579,-0.3060235381126404
1774159274460569300,19.3785693359375,-0.02285255491733551,-0.9384793639183044,-0.33493053913116455
1774159274480562400,19.3985625,-0.0807209312915802,-0.560181200504303,-0.23774132132530212
1774159274500556500,19.418556640625,-0.2553275525569916,-0.13147631287574768,-0.10906524956226349
1774159274520549600,19.438549560546875,-0.4427299201488495,0.13595159351825714,-0.07865151017904282
1774159274540542500,19.45854248046875,-0.5357775688171387,0.12387093156576157,-0.056241631507873535
1774159274560535600,19.47853564453125,-0.5539901852607727,0.04214160144329071,-0.03174065053462982
1774159274580528400,19.4985283203125,-0.5813801884651184,0.04544907063245773,-0.04023398831486702
1774159274600522500,19.5185224609375,-0.5788840651512146,0.0245512705296278,-0.06349283456802368
1774159274620515300,19.538515380859376,-0.463099867105484,0.11850011348724365,-0.15250273048877716
1774159274640508400,19.55850830078125,-0.29983970522880554,0.013195952400565147,-0.27885210514068604
1774159274660501500,19.57850146484375,-0.25246667861938477,-0.013864429667592049,-0.4158410429954529
1774159274680495600,19.59849560546875,-0.1984127163887024,0.325484961271286,-0.42021074891090393
1774159274700488400,19.618488525390624,-0.17487646639347076,0.24539558589458466,-0.3353832960128784
1774159274720482300,19.638482421875,-0.10749225318431854,0.01660979352891445,-0.16139139235019684
1774159274740475400,19.658475341796876,0.090864397585392,-0.13741490244865417,-0.11896763741970062
1774159274760468500,19.678468505859374,0.22347691655158997,0.5293257832527161,-0.3652605414390564
1774159274780462300,19.69846240234375,0.20825618505477905,1.2911698818206787,-0.5537174940109253
1774159274800455400,19.718455322265626,0.0547114759683609,1.4404945373535156,-0.48528677225112915
1774159274820448500,19.738448486328124,-0.04656410962343216,1.6035147905349731,-0.3912496864795685
1774159274840441300,19.75844140625,-0.11207165569067001,1.7385722398757935,-0.2837497293949127
1774159274860434200,19.77843408203125,-0.1031489372253418,1.7400994300842285,-0.11224392056465149
1774159274880428300,19.79842822265625,-0.0468110516667366,1.6452504396438599,0.08691650629043579
1774159274900421400,19.81842138671875,-0.04731221869587898,1.5835639238357544,0.239668071269989
1774159274920414500,19.83841455078125,-0.11778368055820465,1.460004448890686,0.19755303859710693
1774159274940407300,19.8584072265625,-0.28286439180374146,1.315888524055481,0.0012486306950449944
1774159274960401400,19.8784013671875,-0.3717278838157654,1.717000961303711,-0.020066481083631516
1774159274980394200,19.898394287109376,-0.37723204493522644,1.8584890365600586,0.0651620477437973
1774159275000387300,19.91838720703125,-0.33918440341949463,1.8088352680206299,0.18408538401126862
1774159275020380200,19.938380126953124,-0.2498457133769989,1.8109261989593506,0.25859954953193665
1774159275040373200,19.958373291015626,-0.0887804627418518,1.6589429378509521,0.264827162027359
1774159275060367400,19.978367431640624,0.04196931794285774,1.1711784601211548,0.26535794138908386
1774159275080360400,19.9983603515625,0.11600548028945923,0.44946885108947754,0.258683443069458
1774159275100353500,20.018353515625,0.19024603068828583,-0.028542708605527878,0.17403234541416168
1774159275120346400,20.038346435546874,0.20712731778621674,-0.0274135023355484,-0.015824483707547188
1774159275140340200,20.05834033203125,0.24970924854278564,0.27875033020973206,-0.08281964063644409
1774159275160333300,20.078333251953126,0.29465457797050476,0.45599934458732605,-0.13899219036102295
1774159275180326400,20.098326416015624,0.33547988533973694,0.5211676955223083,-0.21927030384540558
1774159275200319200,20.1183193359375,0.37390294671058655,0.4889851212501526,-0.18604888021945953
1774159275220312300,20.138312255859375,0.38188636302948,0.29187026619911194,-0.08044279366731644
1774159275240306400,20.158306396484374,0.38540738821029663,-0.0026422408409416676,-0.06726021319627762
1774159275260299500,20.178299560546876,0.30237483978271484,-0.5136950612068176,-0.296703964471817
1774159275280292400,20.198292236328125,0.11556440591812134,-1.0102598667144775,-0.40076398849487305
1774159275300285400,20.218285400390624,-0.008076979778707027,-1.2842974662780762,-0.2598210275173187
1774159275320279300,20.238279296875,0.06195148825645447,-0.9517919421195984,-0.13434314727783203
1774159275340272400,20.2582724609375,0.31929516792297363,-0.10878665745258331,0.2584129273891449
1774159275360265200,20.27826513671875,0.2741866707801819,-0.4959438741207123,0.6246050596237183
1774159275380258300,20.29825830078125,0.33012130856513977,-0.7304149270057678,0.6566274762153625
1774159275400252400,20.31825244140625,0.3908538520336151,-1.2733352184295654,0.3509152829647064
1774159275420245500,20.33824560546875,0.5106589794158936,-1.6229815483093262,0.21214529871940613
1774159275440238600,20.358238525390625,0.5769105553627014,-1.3673955202102661,0.35104766488075256
1774159275460231400,20.3782314453125,0.6944642663002014,-1.0655157566070557,0.3797815144062042
1774159275480224300,20.398224365234373,0.7976772785186768,-1.1201897859573364,0.28582602739334106
1774159275500218400,20.41821826171875,0.8022977709770203,-1.3539341688156128,0.19469475746154785
1774159275520211500,20.43821142578125,0.6163914203643799,-1.4248919486999512,0.17375384271144867
1774159275540204300,20.458204345703123,0.36927133798599243,-1.2632920742034912,0.2871573567390442
1774159275560197400,20.478197265625,0.22513772547245026,-1.090133547782898,0.3575458824634552
1774159275580191500,20.49819140625,0.1870083212852478,-1.0034674406051636,0.32057034969329834
1774159275600184300,20.518184326171873,0.1698247790336609,-1.0344243049621582,0.266547828912735
1774159275620177200,20.53817724609375,0.16134031116962433,-1.0230097770690918,0.22772280871868134
1774159275640170200,20.558170166015625,0.13248968124389648,-0.941856861114502,0.19058296084403992
1774159275660164400,20.578164306640623,0.05912483111023903,-0.8983133435249329,0.12566456198692322
1774159275680157400,20.598157470703125,-0.02592211402952671,-0.8193157911300659,0.04217012971639633
1774159275700150300,20.618150390625,-0.10805409401655197,-0.6958127021789551,-0.006362905725836754
1774159275720142000,20.63814208984375,-0.1615690290927887,-0.7001745700836182,-0.0178979579359293
1774159275740136200,20.65813623046875,-0.16825759410858154,-0.6405453681945801,-0.0180207472294569
1774159275760129300,20.67812939453125,-0.14479108154773712,-0.5434651970863342,-0.0002330236602574587
1774159275780122400,20.698122314453126,-0.08531329035758972,-0.5090974569320679,-0.02437712252140045
1774159275800115200,20.718115234375,0.007213384844362736,-0.5905584096908569,-0.12296319752931595
1774159275820108300,20.7381083984375,0.15948545932769775,-0.48396918177604675,-0.22762605547904968
1774159275840102100,20.75810205078125,0.3006795048713684,-0.32671576738357544,-0.3673589527606964
1774159275860095200,20.77809521484375,0.29552218317985535,-0.2970535159111023,-0.4129268229007721
1774159275880088000,20.798088134765624,0.12996527552604675,-0.3960097134113312,-0.24336279928684235
1774159275900081200,20.8180810546875,0.09640902280807495,0.1082841157913208,-0.12902580201625824
1774159275920075300,20.8380751953125,-0.049229126423597336,0.5124868750572205,-0.06471196562051773
1774159275940068400,20.858068359375,-0.16725347936153412,0.6655385494232178,-0.04502826929092407
1774159275960061200,20.878061279296876,-0.38213077187538147,0.8027571439743042,-0.07051371037960052
1774159275980054000,20.898053955078126,-0.5293498039245605,0.9357187747955322,-0.010011764243245125
1774159276000048000,20.918048095703124,-0.575832188129425,1.127987027168274,0.08475112169981003
1774159276020041200,20.938041259765626,-0.6175734400749207,1.3490729331970215,0.07700586318969727
1774159276040034300,20.958034423828124,-0.647872805595398,1.567331314086914,0.024163411930203438
1774159276060027100,20.978027099609374,-0.6250506639480591,1.8704180717468262,-0.05340792238712311
1774159276080021200,20.998021240234376,-0.5465090274810791,2.053617000579834,-0.04853009060025215
1774159276100014300,21.018014404296874,-0.4407463073730469,1.9507968425750732,0.00909354817122221
1774159276120007200,21.038007080078124,-0.350329726934433,1.6203559637069702,0.03627283126115799
1774159276140000000,21.058,-0.2214900404214859,1.209661841392517,-0.020301606506109238
1774159276159994000,21.077994140625,-0.07612702995538712,0.8994354009628296,-0.09860530495643616
1774159276179987200,21.0979873046875,-0.004676179029047489,0.5863971710205078,-0.10200798511505127
1774159276199980300,21.117980224609376,-0.02063567563891411,0.36518195271492004,-0.014490376226603985
1774159276219973000,21.13797314453125,-0.09058459103107452,0.25681746006011963,0.10212484747171402
1774159276239967200,21.15796728515625,-0.1704421490430832,0.4312632977962494,0.09997940808534622
1774159276259960000,21.1779599609375,-0.24090561270713806,0.8081278800964355,-0.013242916204035282
1774159276279953200,21.197953125,-0.2656470835208893,0.8366473913192749,-0.18740305304527283
1774159276299946200,21.2179462890625,-0.24392199516296387,0.6150465607643127,-0.30842745304107666
1774159276319940000,21.237940185546876,-0.21642546355724335,0.6395795345306396,-0.1847379356622696
1774159276339933200,21.25793310546875,-0.1691586673259735,0.4535858631134033,0.0815131738781929
1774159276359926300,21.27792626953125,-0.23885972797870636,-0.12389589846134186,0.26759880781173706
1774159276379919400,21.29791943359375,-0.2986946403980255,-0.3521294891834259,-0.0009187930263578892
1774159276399913200,21.317913330078124,-0.2609415650367737,0.14618900418281555,-0.39601442217826843
1774159276419906000,21.337906005859374,-0.16431300342082977,0.38779816031455994,-0.548292875289917
1774159276439899100,21.357899169921875,-0.07561255991458893,0.4542139768600464,-0.3509399890899658
1774159276459892200,21.377892333984374,-0.06671231240034103,0.10152392089366913,-0.31282368302345276
1774159276479886300,21.39788623046875,0.0811191275715828,-0.6111155152320862,-0.22637762129306793
1774159276499879200,21.417879150390625,0.3324686884880066,-1.4535136222839355,0.023280207067728043
1774159276519872300,21.437872314453124,0.393891841173172,-1.6370538473129272,0.3448164165019989
1774159276539865300,21.457865234375,0.16798962652683258,-1.120370626449585,0.29493555426597595
1774159276559859200,21.477859130859375,0.24479126930236816,-1.2764981985092163,-0.40757790207862854
1774159276579852000,21.49785205078125,0.3786373436450958,-0.5849220752716064,-0.37398287653923035
1774159276599845000,21.51784521484375,0.43148016929626465,-0.38220998644828796,-0.09873618185520172
1774159276619838200,21.537838134765625,0.33051928877830505,-0.6278981566429138,0.05935157090425491
1774159276639832300,21.557832275390624,0.18128180503845215,-0.5171160697937012,0.1992918848991394
1774159276659825200,21.5778251953125,0.06313122808933258,-0.3304981589317322,0.26394546031951904
1774159276679818200,21.597818359375,0.005490445531904697,-0.2600400149822235,0.25222307443618774
1774159276699811300,21.617811279296873,-0.026036202907562256,-0.26648303866386414,0.18823008239269257
1774159276719806200,21.63780615234375,-0.0285908542573452,-0.27285468578338623,0.14454293251037598
1774159276739799300,21.65779931640625,-0.044680897146463394,-0.22475050389766693,0.13819828629493713
1774159276759792400,21.67779248046875,-0.07854361832141876,-0.15919145941734314,0.11858576536178589
1774159276779785200,21.69778515625,-0.09939365833997726,-0.08319472521543503,0.05176185816526413
1774159276799779000,21.717779052734375,-0.04764431715011597,-0.05942171439528465,0.09353562444448471
1774159276819772200,21.737772216796873,0.04578623175621033,-0.11113012582063675,0.1378653347492218
1774159276839765200,21.75776513671875,0.1432240754365921,-0.0029021790251135826,0.1517508625984192
1774159276859759400,21.77775927734375,0.2674204707145691,0.18411694467067719,0.21108517050743103
1774159276879752200,21.797752197265623,0.37805119156837463,0.21159517765045166,0.2239532321691513
1774159276899745300,21.817745361328125,0.49884918332099915,0.08123157173395157,0.2057795375585556
1774159276919738400,21.83773828125,0.5293079614639282,0.1279658079147339,0.17848381400108337
1774159276939732200,21.857732177734373,0.5298396944999695,0.6820897459983826,0.07931183278560638
1774159276959725000,21.87772509765625,0.5385028123855591,1.0531278848648071,0.03701464459300041
1774159276979718100,21.89771826171875,0.5163569450378418,0.8623937368392944,-0.035274140536785126
1774159276999711200,21.917711181640627,0.456575870513916,0.9278100728988647,-0.2848866283893585
1774159277019705300,21.937705322265625,0.2939126491546631,1.3860970735549927,-0.5897712111473083
1774159277039698200,21.9576982421875,0.28014472126960754,1.510411262512207,-0.5778729319572449
1774159277059691300,21.977691162109377,0.29304245114326477,1.098522424697876,-0.12724842131137848
1774159277079684400,21.997684326171875,0.2012166976928711,0.6619148254394531,0.43580251932144165
1774159277099678200,22.01767822265625,-0.06185171753168106,0.7941105365753174,0.6298531293869019
1774159277119671300,22.03767138671875,-0.23975111544132233,1.25446355342865,0.5103208422660828
1774159277139664100,22.0576640625,-0.37549787759780884,1.40965735912323,0.2322951704263687
1774159277159657200,22.0776572265625,-0.45879319310188293,1.3361636400222778,0.08456477522850037
1774159277179651300,22.0976513671875,-0.5024863481521606,1.3441978693008423,0.12210007756948471
1774159277199644400,22.11764453125,-0.4866587519645691,1.282355546951294,0.15815825760364532
1774159277219637200,22.13763720703125,-0.45033663511276245,1.0352388620376587,0.11711356043815613
1774159277239631000,22.157631103515627,-0.49981510639190674,0.9233688116073608,0.1441018283367157
1774159277259624200,22.177624267578125,-0.5887189507484436,0.939007043838501,0.26209351420402527
1774159277279617300,22.1976171875,-0.682467520236969,1.1869149208068848,0.1475040763616562
1774159277299610000,22.217610107421876,-0.6724188923835754,1.2572742700576782,0.013740327209234238
1774159277319604200,22.237604248046875,-0.5915873050689697,0.9840564131736755,-0.0748380571603775
1774159277339597300,22.257597412109376,-0.545139491558075,0.48597967624664307,-0.17554089426994324
1774159277359590400,22.27759033203125,-0.49111512303352356,0.33127477765083313,-0.21870195865631104
1774159277379583200,22.297583251953125,-0.48303642868995667,0.6132789254188538,-0.2507767379283905
1774159277399577000,22.3175771484375,-0.4241147041320801,0.975240170955658,-0.3360920250415802
1774159277419570200,22.337570068359376,-0.2696874141693115,1.279564619064331,-0.424949586391449
1774159277439563300,22.357563232421874,-0.07705799490213394,1.2361037731170654,-0.5293202996253967
1774159277459557400,22.377557373046876,-0.07115982472896576,0.5449891686439514,-0.3922533094882965
1774159277479550200,22.39755029296875,0.03276177495718002,-0.5449068546295166,-0.20271888375282288
1774159277499543300,22.417543212890624,-0.07436534017324448,-1.058245301246643,-0.25672009587287903
1774159277519536400,22.437536376953126,-0.25180014967918396,-0.7851855158805847,-0.5161064267158508
1774159277539530200,22.4575302734375,-0.29753541946411133,-0.6795639395713806,-0.5234339833259583
1774159277559523300,22.4775234375,-0.2356117218732834,-1.1948211193084717,-0.316514790058136
1774159277579516200,22.49751611328125,-0.12412363290786743,-1.6441808938980103,-0.0005820912774652243
1774159277599509200,22.51750927734375,0.017920183017849922,-1.5220191478729248,0.2810881733894348
1774159277619503400,22.53750341796875,0.0351090244948864,-1.045218586921692,0.408993661403656
1774159277639496400,22.557496337890626,-0.14756789803504944,-0.8895838260650635,0.1614370197057724
1774159277659489300,22.5774892578125,-0.0665535107254982,-0.7485277056694031,-0.004173260647803545
1774159277679483100,22.597483154296874,0.019567206501960754,-0.8929264545440674,-0.11947794258594513
1774159277699476200,22.617476318359376,0.017748292535543442,-1.1332770586013794,-0.10471105575561523
1774159277719468300,22.63746826171875,-0.011669019237160683,-1.0195239782333374,0.024668395519256592
1774159277739461400,22.65746142578125,-0.04943790286779404,-0.8259527087211609,0.15947382152080536
1774159277759455500,22.67745556640625,-0.04441331699490547,-0.7242875695228577,0.25643178820610046
1774159277779448600,22.697448486328124,-0.024034183472394943,-0.7554042339324951,0.3344838619232178
1774159277799441400,22.71744140625,0.002980621065944433,-0.8400553464889526,0.36740919947624207
1774159277819435300,22.737435302734376,0.02753576450049877,-0.8700941801071167,0.3469473421573639
1774159277839428400,22.757428466796874,0.04368658363819122,-0.761603593826294,0.30362215638160706
1774159277859421400,22.77742138671875,0.034643352031707764,-0.6455948352813721,0.24725434184074402
1774159277879414500,22.79741455078125,0.001576925627887249,-0.5882110595703125,0.24226993322372437
1774159277899408400,22.817408447265624,-0.06268639862537384,-0.5764679908752441,0.2818169891834259
1774159277919401500,22.8374013671875,-0.07538938522338867,-0.5667663812637329,0.30571985244750977
1774159277939394600,22.85739453125,-0.006087685003876686,-0.6313804388046265,0.25330623984336853
1774159277959387600,22.8773876953125,0.1164233461022377,-0.5947542190551758,0.1789819598197937
1774159277979381500,22.897381591796876,0.2636290192604065,-0.5361889004707336,0.15300263464450836
1774159277999374300,22.917374267578126,0.37173911929130554,-0.4936841130256653,0.12216397374868393
1774159278019367400,22.937367431640624,0.407329261302948,-0.34322676062583923,0.12025243788957596
1774159278039361500,22.957361572265626,0.37702736258506775,-0.18258589506149292,0.17854414880275726
1774159278059354600,22.977354736328124,0.3265814483165741,-0.2740686535835266,0.253435879945755
1774159278079347500,22.997347412109374,0.37946048378944397,-0.5820516347885132,0.23725445568561554
1774159278099340500,23.017340576171875,0.5190109610557556,-0.7475454807281494,0.08944529294967651
1774159278119334400,23.03733447265625,0.7350437045097351,-0.41187721490859985,-0.11497260630130768
1774159278139327500,23.057327392578124,0.8761392831802368,-0.33259084820747375,-0.23200933635234833
1774159278159320300,23.0773203125,0.8439483642578125,-0.2865937054157257,-0.3115297853946686
1774159278179314400,23.097314453125,0.7156679034233093,-0.21544252336025238,-0.32265451550483704
1774159278199307500,23.1173076171875,0.5346324443817139,-0.37100210785865784,-0.30861616134643555
1774159278219300600,23.137300537109375,0.2988007068634033,0.12702544033527374,-0.25191083550453186
1774159278239293400,23.15729345703125,0.17751964926719666,0.7843332886695862,-0.16064302623271942
1774159278259287300,23.177287353515624,0.13283516466617584,0.9807559847831726,-0.031149785965681076
1774159278279280400,23.1972802734375,0.19457273185253143,0.981282114982605,0.10085402429103851
1774159278299273500,23.2172734375,0.29942750930786133,0.903141438961029,0.20119446516036987
1774159278319267600,23.237267578125,0.3207104504108429,0.622852087020874,0.27599745988845825
1774159278339260400,23.257260498046875,0.2296798676252365,0.4853565990924835,0.20627623796463013
1774159278359253500,23.27725341796875,0.04674549028277397,0.5078321099281311,0.07723349332809448
1774159278379246600,23.29724658203125,-0.11468461155891418,0.6199243664741516,-0.0936819463968277
1774159278399240400,23.317240478515625,-0.12570051848888397,0.744166910648346,-0.16429851949214935
1774159278419233500,23.337233642578123,-0.10739777237176895,0.7378507852554321,-0.04136143624782562
1774159278439226400,23.357226318359373,-0.13451546430587769,0.5277112722396851,0.05898113176226616
1774159278459220500,23.377220458984375,-0.17935775220394135,0.36812490224838257,0.09501450508832932
1774159278479213600,23.397213623046873,-0.24979382753372192,0.30224815011024475,0.11540979146957397
1774159278499206700,23.41720654296875,-0.32404837012290955,0.32909995317459106,0.13536129891872406
1774159278519200500,23.437200439453125,-0.33150145411491394,0.40825793147087097,0.10610417276620865
1774159278539193300,23.457193359375,-0.22781744599342346,0.4599030315876007,0.05122130736708641
1774159278559186400,23.4771865234375,-0.0936063826084137,0.5124801397323608,-0.0534207783639431
1774159278579179500,23.497179443359375,-0.07767090946435928,0.5281671285629272,-0.09239722788333893
1774159278599173600,23.517173583984373,-0.0839250236749649,0.30977335572242737,-0.047106433659791946
1774159278619166500,23.53716650390625,-0.0976254791021347,0.3122117519378662,0.06741593778133392
1774159278639159600,23.55715966796875,-0.12174084782600403,0.07367745786905289,0.24437281489372253
1774159278659153400,23.5771533203125,-0.17811040580272675,-0.07690655440092087,0.14926697313785553
1774159278679146500,23.597146484375,-0.23851369321346283,-0.34870532155036926,-0.11658810079097748
1774159278699139300,23.617139404296875,-0.2201540321111679,-0.4002614915370941,-0.4087693989276886
1774159278719133000,23.6371328125,-0.21502922475337982,-0.2220475673675537,-0.5463083982467651
1774159278739127000,23.657126953125,-0.27317163348197937,-0.31232669949531555,-0.4268585443496704
1774159278759120000,23.677119873046873,-0.25504401326179504,-0.5410637259483337,-0.29060694575309753
1774159278779113000,23.697113037109375,-0.19583578407764435,-0.9008103013038635,-0.058375488966703415
1774159278799106800,23.71710693359375,-0.10453321039676666,-1.3539247512817383,0.20669686794281006
1774159278819100000,23.737099853515623,-0.22449326515197754,-1.3626900911331177,0.47161105275154114
1774159278839093000,23.757093017578125,-0.28345373272895813,-1.2626651525497437,0.5808761119842529
1774159278859087000,23.777087158203123,-0.1922575831413269,-1.1830897331237793,0.543260931968689
1774159278879080000,23.797079833984377,-0.22741539776325226,-1.1189833879470825,0.4150373339653015
1774159278899072800,23.81707275390625,-0.17729175090789795,-0.8393767476081848,0.32070398330688477
1774159278919065900,23.83706591796875,-0.010065082460641861,-0.6643491983413696,0.10631582885980606
1774159278939060000,23.85706005859375,0.051703233271837234,-0.8119490146636963,-0.04898383095860481
1774159278959053000,23.877052978515625,0.06458751857280731,-1.1004235744476318,-0.0021106251515448093
1774159278979046000,23.8970458984375,0.08885817229747772,-1.2467154264450073,0.2140963077545166
1774159278999040000,23.9170400390625,0.10582411289215088,-1.2314276695251465,0.39055511355400085
1774159279019032800,23.93703271484375,0.1263035386800766,-1.144559383392334,0.42753416299819946
1774159279039026000,23.95702587890625,0.10549337416887283,-1.100436806678772,0.49832165241241455
1774159279059018800,23.977018798828126,0.08450917899608612,-1.0887874364852905,0.562701404094696
1774159279079012900,23.997012939453125,0.05042408034205437,-1.0348100662231445,0.5684640407562256
1774159279099006000,24.017005859375,0.04482419788837433,-1.0461933612823486,0.49024996161460876
1774159279118999000,24.0369990234375,0.07208599150180817,-0.8049754500389099,0.3238412141799927
1774159279138993200,24.0569931640625,0.0935610756278038,-0.38640639185905457,0.2383601814508438
1774159279158985700,24.07698583984375,0.09543739259243011,-0.3654211461544037,0.2087714523077011
1774159279178978800,24.096978759765626,0.0752517580986023,-0.42639413475990295,0.27142420411109924
1774159279198973000,24.116972900390625,0.08277936279773712,-0.3164198398590088,0.3700900077819824
1774159279218966000,24.136966064453127,0.1671159863471985,-0.15398243069648743,0.3229058086872101
1774159279238958800,24.156958740234376,0.373327374458313,-0.23454932868480682,0.12420038878917694
1774159279258952000,24.176951904296875,0.5899456143379211,-0.46315446496009827,-0.01618986390531063
1774159279278946000,24.196946044921877,0.6792758107185364,-0.6199219226837158,-0.10748451948165894
1774159279298939000,24.21693896484375,0.7504835724830627,-0.5137630701065063,-0.2325020581483841
1774159279318932000,24.236931884765625,0.7810136079788208,-0.3160446584224701,-0.41015926003456116
1774159279338925800,24.25692578125,0.7173194289207458,-0.27369698882102966,-0.4102604389190674
1774159279358919000,24.2769189453125,0.655724287033081,-0.3851049542427063,-0.26907879114151
1774159279378912000,24.296912109375,0.4232463538646698,-0.7484829425811768,-0.06944244354963303
1774159279398906000,24.316906005859376,0.07418669760227203,-0.6662609577178955,0.17454573512077332
1774159279418899000,24.33689892578125,-0.057063259184360504,0.6014576554298401,0.09735044091939926
1774159279438891800,24.356891845703124,-0.1804818958044052,1.7674503326416016,-0.24203401803970337
1774159279458884900,24.376884765625,-0.18468569219112396,2.113912582397461,-0.30428728461265564
1774159279478879000,24.39687890625,-0.0014810762368142605,1.6044368743896484,0.1830814629793167
1774159279498872000,24.4168720703125,0.12084383517503738,0.9893162250518799,0.7529939413070679
1774159279518865000,24.436864990234376,0.08307124674320221,0.6531270742416382,0.82943195104599
1774159279538859000,24.45685888671875,-0.04470181092619896,0.47379904985427856,0.5997264385223389
1774159279558851800,24.476851806640624,-0.11711617559194565,0.6774388551712036,0.3064127564430237
1774159279578845000,24.496844970703126,-0.15539932250976562,1.0284478664398193,0.1609959602355957
1774159279598839000,24.516839111328125,-0.09422651678323746,1.2077064514160156,0.25348928570747375
1774159279618832000,24.536831787109374,0.00497733149677515,1.2852150201797485,0.33715561032295227
1774159279638825000,24.556824951171876,0.07401217520236969,1.2871010303497314,0.40835651755332947
1774159279658818000,24.576818115234374,0.16845430433750153,1.220762014389038,0.5098326802253723
1774159279678812000,24.59681201171875,0.25522446632385254,1.0121368169784546,0.5786668062210083
