time,seconds_elapsed,z,y,x
1774159255141017600,0.059017578125,1.2235931158065796,0.06687357276678085,0.5947693586349487
1774159255161010400,0.079010498046875,1.2592946290969849,0.09833535552024841,0.59205561876297
1774159255181003500,0.09900341796875,1.2688196897506714,0.1525794267654419,0.4614826738834381
1774159255200996600,0.11899658203125,1.220746397972107,0.2583159804344177,0.39419791102409363
1774159255220989400,0.138989501953125,1.2875598669052124,0.35344406962394714,0.40577733516693115
1774159255240982500,0.158982421875,1.6030402183532715,0.6291483640670776,0.43524548411369324
1774159255260975600,0.1789755859375,1.897304892539978,0.6692292094230652,0.5145658850669861
1774159255280968700,0.19896875,2.001600503921509,0.6236382722854614,0.6727253794670105
1774159255300961500,0.21896142578125,1.999595284461975,0.5830144286155701,0.7926480770111084
1774159255320954600,0.23895458984375,2.0487232208251953,0.48242098093032837,0.9819807410240173
1774159255340947700,0.25894775390625,1.8065025806427002,0.19072628021240234,1.0266371965408325
1774159255360939500,0.278939453125,1.391229510307312,0.14683498442173004,0.571742057800293
1774159255380932600,0.2989326171875,1.2409073114395142,0.05952591076493263,-0.1801023930311203
1774159255400925700,0.31892578125,1.3002310991287231,0.4157322347164154,-0.6338486075401306
1774159255420918500,0.33891845703125,1.6853058338165283,0.6105602979660034,-0.7244120240211487
1774159255440911600,0.35891162109375,1.9477335214614868,0.06384182721376419,-0.5454491972923279
1774159255460904700,0.37890478515625,2.1268606185913086,-0.4289441704750061,-0.10064591467380524
1774159255480897800,0.398897705078125,2.2442636489868164,-0.8004196882247925,0.2168731838464737
1774159255500890400,0.418890380859375,2.518630266189575,-0.7055379748344421,0.31154191493988037
1774159255520883500,0.438883544921875,2.8167967796325684,-0.44327569007873535,0.23019352555274963
1774159255540876500,0.45887646484375,2.1934242248535156,-0.1417398303747177,0.050874099135398865
1774159255560869600,0.47886962890625,1.16977858543396,-0.13357190787792206,-0.05355696752667427
1774159255580862500,0.498862548828125,0.6106340885162354,0.11915381997823715,-0.15762345492839813
1774159255600855600,0.51885546875,0.6329479217529297,0.5042288303375244,-0.44985637068748474
1774159255620848600,0.5388486328125,0.7224546074867249,0.6607432961463928,-0.6482096910476685
1774159255640841500,0.558841552734375,0.7439132928848267,0.4240191876888275,-0.5799677968025208
1774159255660834600,0.57883447265625,0.6802440285682678,-0.05602571740746498,-0.24976801872253418
1774159255680827600,0.59882763671875,0.7078858017921448,-0.3308333158493042,0.09708074480295181
1774159255700821800,0.61882177734375,0.8501121997833252,-0.1640067845582962,0.23291900753974915
1774159255720814600,0.638814697265625,0.8804810047149658,0.06985977292060852,0.2620505094528198
1774159255740807400,0.658807373046875,0.8620732426643372,-0.055090416222810745,0.32772648334503174
1774159255760800500,0.678800537109375,0.8591642379760742,-0.3503023386001587,0.4055964946746826
1774159255780792600,0.69879248046875,0.9274002909660339,-0.45306867361068726,0.43850013613700867
1774159255800785700,0.71878564453125,1.0180060863494873,-0.3439752161502838,0.43117135763168335
1774159255820778500,0.738778564453125,1.0697689056396484,-0.17815881967544556,0.3881850242614746
1774159255840771600,0.758771484375,1.1083471775054932,-0.15308089554309845,0.3595472574234009
1774159255860764400,0.778764404296875,1.2402551174163818,-0.239971324801445,0.4308067858219147
1774159255880757500,0.798757568359375,1.5288954973220825,-0.444754034280777,0.6249184608459473
1774159255900750600,0.81875048828125,1.7702257633209229,-0.585414707660675,0.9113350510597229
1774159255920743400,0.838743408203125,1.9016780853271484,-0.5749927163124084,1.152082920074463
1774159255940736500,0.858736572265625,2.081841230392456,-0.37481942772865295,1.2468315362930298
1774159255960729600,0.8787294921875,2.1780903339385986,-0.09276056289672852,1.1952615976333618
1774159255980722700,0.89872265625,2.2185215950012207,-0.003216033335775137,1.135932445526123
1774159256000715500,0.918715576171875,2.485805034637451,-0.2127375602722168,1.2298741340637207
1774159256020708600,0.93870849609375,2.725381851196289,-0.41478148102760315,1.4151395559310913
1774159256040701700,0.95870166015625,2.888669490814209,-0.5084219574928284,1.5805951356887817
1774159256060694800,0.97869482421875,3.020942211151123,-0.5795733332633972,1.7766088247299194
1774159256080687600,0.9986875,3.102853298187256,-0.759423553943634,2.0179457664489746
1774159256100680700,1.0186806640625,3.0603559017181396,-0.8072110414505005,2.2606687545776367
1774159256120673500,1.038673583984375,2.6996264457702637,-0.5722704529762268,2.3788740634918213
1774159256140666400,1.058666259765625,2.2277297973632812,-0.30651307106018066,2.105470657348633
1774159256160658700,1.07865869140625,1.9886033535003662,-0.170395165681839,1.5248024463653564
1774159256180651800,1.09865185546875,1.8911687135696411,-0.1918908804655075,1.2439324855804443
1774159256200644600,1.11864453125,1.5852566957473755,-0.0765131488442421,1.5949476957321167
1774159256220637400,1.138637451171875,1.2521564960479736,-0.09031391888856888,1.5641144514083862
1774159256240630500,1.158630615234375,1.0681086778640747,-0.11484376341104507,1.2076940536499023
1774159256260623600,1.17862353515625,0.9370058178901672,-0.07860692590475082,0.8877016305923462
1774159256280616400,1.198616455078125,0.9365599751472473,-0.058221761137247086,1.0209201574325562
1774159256300609500,1.218609619140625,0.9470504522323608,-0.19552555680274963,1.1478689908981323
1774159256320602600,1.2386025390625,1.0414906740188599,-0.17660139501094818,1.2318803071975708
1774159256340595500,1.258595458984375,1.0840892791748047,-0.2105146199464798,1.270410418510437
1774159256360588500,1.278588623046875,1.0974029302597046,-0.3101922273635864,1.2061156034469604
1774159256380581600,1.29858154296875,1.0757445096969604,-0.4616855978965759,1.1817442178726196
1774159256400574700,1.31857470703125,1.1156197786331177,-0.5286340117454529,1.2310781478881836
1774159256420567600,1.338567626953125,1.1523189544677734,-0.3885003328323364,1.285658597946167
1774159256440560600,1.358560546875,1.0669994354248047,-0.37352272868156433,1.119200348854065
1774159256460553700,1.3785537109375,0.8801976442337036,-0.5493528842926025,0.8656567931175232
1774159256480546600,1.398546630859375,0.9417983889579773,-0.6580141186714172,0.8653206825256348
1774159256500539600,1.41853955078125,1.0371571779251099,-0.4789319634437561,0.726624071598053
1774159256520532700,1.43853271484375,1.1068917512893677,-0.3860028386116028,0.5444326996803284
1774159256540524500,1.458524658203125,1.0923559665679932,-0.3648887574672699,0.6491513848304749
1774159256560517600,1.478517578125,0.7731476426124573,-0.5876424908638,0.7393411993980408
1774159256580510700,1.4985107421875,0.6682281494140625,-0.8862254619598389,0.6546809077262878
1774159256600503800,1.51850390625,0.8127975463867188,-0.8153078556060791,0.5866251587867737
1774159256620496400,1.538496337890625,1.2516849040985107,-0.6506280899047852,0.3166746199131012
1774159256640489500,1.558489501953125,1.5427777767181396,-0.2063494473695755,0.12105745077133179
1774159256660482600,1.578482666015625,1.3564283847808838,-0.0357513390481472,0.06896229088306427
1774159256680475400,1.598475341796875,1.1838635206222534,0.4305114448070526,0.2059779316186905
1774159256700468500,1.618468505859375,1.107177495956421,0.5183613896369934,0.2671195864677429
1774159256720461600,1.638461669921875,1.0545986890792847,0.2337813377380371,0.48685887455940247
1774159256740454700,1.65845458984375,0.9281627535820007,-0.844761073589325,0.03413267061114311
1774159256760447500,1.678447509765625,0.8101506233215332,-1.2896623611450195,0.23482902348041534
1774159256780440600,1.698440673828125,1.0307064056396484,-0.7086189389228821,0.15332697331905365
1774159256800433700,1.71843359375,0.7232098579406738,-1.3856168985366821,1.0560853481292725
1774159256820426500,1.738426513671875,0.3427054286003113,-0.8738119006156921,1.1529161930084229
1774159256840419600,1.758419677734375,0.5844866037368774,-0.390516072511673,0.7202976942062378
1774159256860411600,1.77841162109375,0.5649542212486267,-0.5377097725868225,0.6579046249389648
1774159256880404500,1.798404541015625,0.6588748097419739,-0.5140146017074585,0.5123271942138672
1774159256900397600,1.8183974609375,0.6746170520782471,-0.3384518325328827,0.672149658203125
1774159256920390700,1.838390625,0.5831960439682007,-0.31103697419166565,0.7648385763168335
1774159256940383700,1.8583837890625,0.7836753726005554,-0.49006664752960205,0.8766998648643494
1774159256960376600,1.87837646484375,1.1335606575012207,-0.25951945781707764,0.460966557264328
1774159256980369700,1.89836962890625,1.1776986122131348,-0.4085262417793274,0.17765681445598602
1774159257000362800,1.91836279296875,1.028198003768921,-0.7413116693496704,0.34740591049194336
1774159257020355600,1.93835546875,0.7411750555038452,-0.6750285029411316,0.30961909890174866
1774159257040348400,1.958348388671875,0.320459246635437,-0.3689705729484558,0.21050690114498138
1774159257060341500,1.978341552734375,0.39090490341186523,0.20093576610088348,-0.2874200642108917
1774159257080334600,1.99833447265625,-0.09034933894872665,0.391290545463562,-0.17822326719760895
1774159257100327400,2.018327392578125,-0.6120628714561462,0.521966278553009,0.11734500527381897
1774159257120320500,2.038320556640625,-0.7482745051383972,0.7295585870742798,0.09047503769397736
1774159257140313600,2.058313720703125,-0.7571942210197449,0.7018800973892212,-0.15480422973632812
1774159257160306700,2.078306640625,-0.8216440677642822,-0.2650130093097687,0.012112323194742203
1774159257180299500,2.098299560546875,-0.8706430196762085,-0.350686639547348,0.03229855000972748
1774159257200291600,2.11829150390625,-0.6615659594535828,0.18027256429195404,-0.04144224897027016
1774159257220284400,2.138284423828125,-0.22521713376045227,0.046605050563812256,-0.02544410713016987
1774159257240277500,2.158277587890625,0.14691834151744843,-0.05717700347304344,0.03687412664294243
1774159257260270600,2.1782705078125,0.43011462688446045,0.145680233836174,-0.14996686577796936
1774159257280263700,2.198263671875,0.48580318689346313,0.28629541397094727,-0.016044214367866516
1774159257300256500,2.218256591796875,0.809268593788147,0.12579122185707092,-0.12146065384149551
1774159257320249600,2.23824951171875,0.49320730566978455,-0.19756101071834564,0.08242723345756531
1774159257340242700,2.25824267578125,0.892566442489624,0.0566672757267952,-0.3108193874359131
1774159257360235800,2.27823583984375,1.494564175605774,-0.08950218558311462,-0.5714965462684631
1774159257380228600,2.298228515625,1.3417490720748901,-1.0292500257492065,-0.3700299859046936
1774159257400221700,2.3182216796875,1.899303674697876,-1.2161601781845093,-0.6377831101417542
1774159257420214500,2.338214599609375,2.6204264163970947,-0.7082956433296204,-1.3397958278656006
1774159257440207400,2.358207275390625,2.2860145568847656,0.19304828345775604,-1.976406455039978
1774159257460200400,2.378200439453125,1.152952790260315,1.0240155458450317,-1.426583170890808
1774159257480193500,2.398193603515625,0.10778238624334335,1.5223747491836548,-0.3913978636264801
1774159257500186600,2.4181865234375,0.24621324241161346,1.654307246208191,-0.7107718586921692
1774159257520178400,2.438178466796875,0.730653703212738,0.33739349246025085,-0.3865405321121216
1774159257540171500,2.458171630859375,1.397228479385376,-0.6417105197906494,-0.6015260815620422
1774159257560164600,2.47816455078125,1.694728970527649,-0.926859438419342,-0.8679779767990112
1774159257580157400,2.498157470703125,1.7751026153564453,-1.0089303255081177,-0.9926879405975342
1774159257600150500,2.518150634765625,1.6032119989395142,-0.4342779517173767,-1.011974811553955
1774159257620143600,2.5381435546875,1.518775463104248,0.18529395759105682,-0.9566170573234558
1774159257640136400,2.558136474609375,1.4918341636657715,0.5173786878585815,-0.933659553527832
1774159257660129500,2.578129638671875,1.415741205215454,0.39696839451789856,-0.6170123219490051
1774159257680122600,2.59812255859375,1.3989779949188232,0.025176992639899254,-0.5305134057998657
1774159257700115700,2.61811572265625,1.5000449419021606,0.07367688417434692,-0.44815248250961304
1774159257720108000,2.63810791015625,1.7861450910568237,0.27487683296203613,-0.6613355875015259
1774159257740101000,2.65810107421875,1.6592079401016235,0.017136109992861748,-0.27759671211242676
1774159257760094200,2.67809423828125,0.8767810463905334,-0.3705197274684906,0.14806696772575378
1774159257780087000,2.698087158203125,0.4817160367965698,0.4838034212589264,0.27956825494766235
1774159257800080100,2.718080078125,0.25945526361465454,0.42657288908958435,0.6729403138160706
1774159257820073200,2.7380732421875,0.39777958393096924,-0.465789258480072,0.7385233044624329
1774159257840065000,2.75806494140625,-0.016748353838920593,0.14964568614959717,0.3707146942615509
1774159257860058000,2.77805810546875,-0.817267119884491,1.276078701019287,0.05673065781593323
1774159257880051200,2.79805126953125,-1.3397234678268433,2.0404000282287598,0.08250872790813446
1774159257900044000,2.8180439453125,-0.18145741522312164,1.2838753461837769,-0.14274916052818298
1774159257920037000,2.838037109375,0.003168629016727209,0.4236021339893341,-0.6499332785606384
1774159257940030200,2.8580302734375,0.2929261326789856,0.271073579788208,-0.8409138917922974
1774159257960023000,2.87802294921875,0.7316665053367615,1.021844506263733,-1.1221929788589478
1774159257980015900,2.898015869140625,2.4380099773406982,0.9918062090873718,-1.1012206077575684
1774159258000009000,2.918009033203125,2.9594669342041016,2.1208810806274414,0.7207480669021606
1774159258020002000,2.938001953125,4.106743812561035,0.9540175199508667,1.8458470106124878
1774159258039995100,2.9579951171875,4.994334697723389,-1.0817869901657104,1.6171391010284424
1774159258059988000,2.977988037109375,4.193142890930176,-1.2390767335891724,1.033475637435913
1774159258079981000,2.99798095703125,3.046163558959961,-0.6970813274383545,0.032997097820043564
1774159258099974100,3.01797412109375,2.5545225143432617,-0.10987616330385208,-0.8915714621543884
1774159258119966000,3.037966064453125,1.6995564699172974,-0.48331794142723083,-1.5166460275650024
1774159258139959000,3.057958984375,1.182246446609497,-0.4233584403991699,-1.666256308555603
1774159258159952100,3.0779521484375,-0.01625700108706951,-0.5079314112663269,-1.9564158916473389
1774159258179945000,3.097945068359375,-1.164996862411499,0.07676428556442261,-2.0124499797821045
1774159258199938000,3.11793798828125,-0.1554069072008133,0.5843465328216553,-1.0872399806976318
1774159258219931100,3.13793115234375,-0.4895577132701874,0.5456539988517761,-0.10268483310937881
1774159258239924200,3.15792431640625,-0.20156534016132355,-0.26399916410446167,0.6738955974578857
1774159258259917000,3.1779169921875,0.1444069743156433,-0.4450634717941284,0.6670635342597961
1774159258279910100,3.19791015625,0.09446525573730469,-0.20798702538013458,0.4239744544029236
1774159258299903200,3.2179033203125,-0.1149044781923294,-0.08179845660924911,0.39898228645324707
1774159258319896000,3.23789599609375,-0.006881341803818941,-0.07397089898586273,0.4358217716217041
1774159258339889200,3.25788916015625,-0.08479318767786026,-0.2662801444530487,0.4546529948711395
1774159258359882200,3.27788232421875,-0.20903471112251282,-0.048656217753887177,0.03997351601719856
1774159258379875000,3.297875,-0.0432840920984745,-0.040352750569581985,0.002267415402457118
1774159258399868000,3.317867919921875,-0.2030540406703949,-0.2537262737751007,0.01979847252368927
1774159258419860200,3.337860107421875,-0.2637629210948944,-0.28094539046287537,0.05083175376057625
1774159258439853300,3.357853271484375,-0.13054363429546356,0.05319930613040924,-0.07959522306919098
1774159258459846100,3.37784619140625,-0.06061035022139549,0.1711437851190567,-0.3303872346878052
1774159258479839000,3.3978388671875,0.01768685132265091,0.053047504276037216,0.11336677521467209
1774159258499832000,3.41783203125,-0.16218598186969757,0.19887687265872955,-0.1617729216814041
1774159258519825000,3.437824951171875,-0.49244749546051025,0.21015483140945435,-0.16703985631465912
1774159258539818000,3.45781787109375,-0.3101099133491516,0.17195577919483185,0.02581561729311943
1774159258559811000,3.47781103515625,-0.1272365152835846,-0.18066857755184174,0.2997981607913971
1774159258579804200,3.49780419921875,-0.2236618548631668,-0.09106066823005676,0.16603876650333405
1774159258599797000,3.517796875,0.16166932880878448,-1.6654067039489746,0.8614345788955688
1774159258619790000,3.5377900390625,0.1143537387251854,-1.0116180181503296,0.9917505383491516
1774159258639783200,3.557783203125,-0.04421912506222725,0.3637864589691162,0.1053282842040062
1774159258659776000,3.57777587890625,-0.08785475790500641,0.05548669397830963,-0.5996605157852173
1774159258679769000,3.59776904296875,0.15418078005313873,-0.23779845237731934,-0.4185386598110199
1774159258699762200,3.61776220703125,0.18659624457359314,-0.4094682037830353,-0.21008852124214172
1774159258719754500,3.63775439453125,0.25781476497650146,-0.6152117848396301,-0.20833829045295715
1774159258739747600,3.65774755859375,0.355806827545166,-0.533413290977478,-0.19219474494457245
1774159258759740400,3.677740478515625,0.7317602038383484,-0.08612503111362457,-0.4482329189777374
1774159258779733500,3.6977333984375,0.8612489700317383,0.18817868828773499,-0.6145457029342651
1774159258799726600,3.7177265625,0.4466123878955841,-0.29727640748023987,-0.45367082953453064
1774159258819719700,3.7377197265625,0.28244659304618835,-0.7016034126281738,-0.5160135626792908
1774159258839712300,3.757712158203125,0.3784104287624359,-0.5563098192214966,-0.5534056425094604
1774159258859705300,3.777705322265625,0.2752044200897217,-0.5191568732261658,-0.450620174407959
1774159258879698400,3.797698486328125,0.17892660200595856,-0.8164111971855164,-0.14606133103370667
1774159258899691300,3.817691162109375,-0.046299055218696594,-1.2446880340576172,0.10779517143964767
1774159258919684400,3.837684326171875,-0.48496270179748535,-1.345807433128357,0.3127555251121521
1774159258939677400,3.857677490234375,-0.1233309879899025,-1.1386768817901611,0.5202738046646118
1774159258959670500,3.87767041015625,0.5536935329437256,-1.2028640508651733,0.5909612774848938
1774159258979663400,3.897663330078125,0.2295631468296051,-0.8198448419570923,0.09955295920372009
1774159258999656400,3.917656494140625,0.3110460340976715,-0.08124558627605438,0.13726837933063507
1774159259019649500,3.9376494140625,0.1391294002532959,0.031019700691103935,-0.09211288392543793
1774159259039641300,3.957641357421875,0.1985117644071579,0.07981174439191818,-0.16681136190891266
1774159259059634400,3.977634521484375,0.21840184926986694,-0.007564176339656115,-0.12433233857154846
1774159259079627500,3.99762744140625,0.4112730324268341,-0.3397804796695709,0.15248781442642212
1774159259099620400,4.017620361328125,0.04316131770610809,-0.9125417470932007,0.4009149372577667
1774159259119613400,4.037613525390625,-0.4097883105278015,-0.9090247750282288,0.3930354416370392
1774159259139606500,4.0576064453125,-0.5768806338310242,-0.30573728680610657,0.21300441026687622
1774159259159599600,4.077599609375,-0.3853980302810669,-0.1851125955581665,0.10389097779989243
1774159259179592400,4.097592529296875,-0.1667218655347824,-0.4665336310863495,0.14627225697040558
1774159259199585500,4.11758544921875,-0.18264837563037872,-0.7387494444847107,0.2698434591293335
1774159259219578600,4.13757861328125,-0.20128756761550903,-0.7730445265769958,0.23561891913414001
1774159259239571500,4.157571533203125,-0.045401569455862045,-0.17332331836223602,-0.17250119149684906
1774159259259564300,4.177564208984375,0.44041359424591064,0.7491767406463623,-0.6945151090621948
1774159259279557400,4.197557373046875,0.20420293509960175,0.1939588189125061,-0.5376101732254028
1774159259299550500,4.217550537109375,0.5130997896194458,-0.05408374220132828,0.008869658224284649
1774159259319543300,4.237543212890625,0.3091924786567688,-0.6411024928092957,0.4056476354598999
1774159259339536400,4.257536376953125,-0.020863203331828117,-0.3504831790924072,0.24096573889255524
1774159259359529500,4.277529541015625,-0.05029726028442383,-0.1474301964044571,0.09176773577928543
1774159259379522600,4.2975224609375,-0.03133555129170418,0.24757596850395203,0.008865929208695889
1774159259399515400,4.317515380859375,0.07875686138868332,0.2535582482814789,0.10229707509279251
1774159259419507500,4.337507568359375,-0.005940180737525225,-0.059716857969760895,0.3720254898071289
1774159259439500300,4.357500244140625,-0.08356600254774094,-0.23597045242786407,0.4986838400363922
1774159259459493400,4.377493408203125,-0.09897372126579285,-0.7879204154014587,0.6136375665664673
1774159259479486500,4.397486572265625,-0.11591142416000366,-1.2160958051681519,0.7633439898490906
1774159259499479600,4.4174794921875,-0.0928116962313652,-1.0966739654541016,0.8767829537391663
1774159259519472400,4.437472412109375,-0.1259818971157074,-0.6180427074432373,0.5617578625679016
1774159259539465500,4.457465576171875,-0.14737267792224884,-0.3407330811023712,0.23802082240581512
1774159259559458600,4.47745849609375,-0.16244643926620483,-0.007934888824820518,0.11869043111801147
1774159259579451600,4.49745166015625,-0.12688498198986053,-0.140076145529747,0.2164766490459442
1774159259599444500,4.517444580078125,0.034807514399290085,-1.0217784643173218,0.5979108214378357
1774159259619437600,4.5374375,0.3165441155433655,-1.3481658697128296,1.010485053062439
1774159259639430400,4.557430419921875,0.3099069893360138,-1.7297191619873047,1.1913903951644897
1774159259659423200,4.57742333984375,0.2321040779352188,-1.5892413854599,1.1083176136016846
1774159259679416300,4.597416259765625,0.2551169693470001,-1.877892017364502,1.023708462715149
1774159259699409400,4.617409423828125,0.25086310505867004,-2.2913622856140137,1.2216579914093018
1774159259719404300,4.637404296875,0.15251684188842773,-2.172278881072998,1.3626726865768433
1774159259739397000,4.657397216796875,0.26186275482177734,-2.21170973777771,1.2715214490890503
1774159259759390200,4.67739013671875,0.6058100461959839,-2.4751899242401123,0.6953127384185791
1774159259779383300,4.69738330078125,0.3837588429450989,-1.9141345024108887,0.5044746398925781
1774159259799376100,4.717376220703125,-0.39674070477485657,-0.8694837689399719,0.4135822653770447
1774159259819369000,4.737368896484375,-0.6938895583152771,0.9781364798545837,-0.027664650231599808
1774159259839361300,4.757361328125,-0.9698023796081543,3.033437490463257,-0.626731812953949
1774159259859354000,4.77735400390625,-0.6943007111549377,3.9329490661621094,-1.2004326581954956
1774159259879347200,4.79734716796875,-0.09663572907447815,3.440541982650757,-1.5777159929275513
1774159259899340000,4.817340087890625,-0.17059651017189026,1.5370231866836548,-1.0452015399932861
1774159259919333000,4.8373330078125,-0.23972231149673462,0.3189811706542969,-0.15657229721546173
1774159259939326000,4.857325927734375,0.20711536705493927,0.02407444268465042,0.14062076807022095
1774159259959319000,4.877319091796875,0.16138222813606262,0.08379822969436646,-0.2238493412733078
1774159259979312000,4.89731201171875,0.021704496815800667,0.16788966953754425,-0.33540835976600647
1774159259999305000,4.917304931640625,0.038231540471315384,0.16695383191108704,-0.5369523763656616
1774159260019298000,4.937298095703125,0.0764516294002533,0.40962132811546326,-0.8175422549247742
1774159260039291100,4.957291015625,0.04286357760429382,0.6448578238487244,-0.8676370978355408
1774159260059284200,4.9772841796875,0.011203918606042862,0.2624731659889221,-0.6206603646278381
1774159260079277000,4.997277099609375,0.016687899827957153,-0.2697142958641052,-0.2953996956348419
1774159260099270100,5.017270263671875,-0.1348763257265091,-0.33929550647735596,-0.1438397318124771
1774159260119263200,5.03726318359375,-0.334811806678772,0.025524800643324852,-0.33141493797302246
1774159260139256000,5.057256103515625,-0.43687185645103455,0.4664156436920166,-0.5499384999275208
1774159260159249200,5.077249267578125,-0.5660447478294373,0.6613587737083435,-0.953541100025177
1774159260179242200,5.0972421875,-0.3262132704257965,0.9537062048912048,-0.7687576413154602
1774159260199235300,5.1172353515625,-0.23518376052379608,0.715723991394043,-0.4600038230419159
1774159260219228000,5.137227783203125,-0.37370702624320984,0.5818762183189392,-0.31093257665634155
1774159260239221000,5.157220947265625,-0.22886539995670319,-0.0497497133910656,0.005338040180504322
1774159260259214000,5.177214111328125,-0.2708064615726471,-0.19461262226104736,0.14143702387809753
1774159260279207200,5.197207275390625,-0.284108430147171,-0.6105432510375977,0.2927194833755493
1774159260299200000,5.217199951171875,-0.11531354486942291,-0.33252257108688354,0.20275923609733582
1774159260319193000,5.237193115234375,-0.09141407161951065,0.805983304977417,-0.3921310305595398
1774159260339186200,5.257186279296875,-0.04355733096599579,1.2357224225997925,-1.176947832107544
1774159260359179000,5.277178955078125,0.07580900937318802,0.7332960963249207,-0.5833470821380615
1774159260379172000,5.297172119140625,-0.006708769127726555,-0.0035294874105602503,-0.03418886289000511
1774159260399165200,5.317165283203125,0.2540093660354614,-0.6852582693099976,0.37695208191871643
1774159260419158300,5.337158203125,0.1969090700149536,-0.869480550289154,0.4891294836997986
1774159260439151000,5.357151123046875,0.33667150139808655,-0.689339280128479,0.30609095096588135
1774159260459143200,5.37714306640625,0.3346285820007324,-0.4440368413925171,0.11263573169708252
1774159260479136300,5.39713623046875,0.09732016175985336,-0.3888857066631317,0.027408720925450325
1774159260499129000,5.417129150390625,-0.025549834594130516,-0.48295867443084717,0.13925482332706451
1774159260519122200,5.4371220703125,0.0036762275267392397,-0.6129797697067261,0.21327552199363708
1774159260539115300,5.457115234375,0.05878235772252083,-0.5208809971809387,0.15096794068813324
1774159260559108000,5.477108154296875,-0.007229150738567114,-0.26024729013442993,0.003824033075943589
1774159260579101200,5.49710107421875,-0.12875717878341675,-0.05596792697906494,-0.09878037124872208
1774159260599094300,5.51709423828125,-0.15565431118011475,0.16163310408592224,-0.12346708029508591
1774159260619087000,5.537087158203125,-0.20528657734394073,0.6351106762886047,0.1125398576259613
1774159260639080000,5.557079833984375,-0.2744115889072418,0.5850456357002258,0.02178492397069931
1774159260659073000,5.577072998046875,-0.1590450406074524,0.29986074566841125,0.09469667822122574
1774159260679066000,5.597066162109375,-0.09995589405298233,0.28423890471458435,0.3180365562438965
1774159260699059000,5.617058837890625,0.07205608487129211,0.8415578603744507,-0.030160831287503242
1774159260719049700,5.6370498046875,-0.08045196533203125,0.3974922299385071,-0.16864094138145447
1774159260739042600,5.65704248046875,-0.22469569742679596,0.32860931754112244,-0.3346746563911438
1774159260759035600,5.67703564453125,-0.14965073764324188,0.6336589455604553,-0.3612165153026581
1774159260779028700,5.69702880859375,-0.006355633959174156,0.18367396295070648,-0.17513640224933624
1774159260799021600,5.717021484375,0.007191333919763565,-0.1451507955789566,0.3508043587207794
1774159260819014700,5.7370146484375,0.0696650967001915,0.03796069696545601,0.45297732949256897
1774159260839007700,5.7570078125,0.30874770879745483,0.7398740649223328,0.06526928395032883
1774159260859000600,5.77700048828125,0.37267664074897766,1.00436270236969,-0.20697501301765442
1774159260878993400,5.796993408203125,0.32932063937187195,0.7276874780654907,-0.4625745713710785
1774159260898986500,5.816986572265625,0.13274472951889038,0.06387937813997269,-0.79962557554245
1774159260918979600,5.8369794921875,0.10483720153570175,0.09697368741035461,-1.3811755180358887
1774159260938972400,5.856972412109375,0.06950051337480545,-0.9083648324012756,-0.9893672466278076
1774159260958965500,5.876965576171875,0.22657588124275208,-1.0750465393066406,-0.1545506864786148
1774159260978958600,5.89695849609375,0.23184388875961304,-1.0486444234848022,0.3359508514404297
1774159260998951700,5.91695166015625,0.11007484048604965,-0.9904306530952454,0.14622192084789276
1774159261018944500,5.936944580078125,0.08709921687841415,-0.444047212600708,-0.14767254889011383
1774159261038937600,5.9569375,0.1603393405675888,-0.10395915806293488,-0.24735093116760254
1774159261058930700,5.9769306640625,0.15333735942840576,0.4714788496494293,-0.08901961892843246
1774159261078923500,5.996923583984375,0.05017795041203499,1.0403902530670166,-0.10016068816184998
1774159261098916600,6.01691650390625,0.06854071468114853,2.017092227935791,-0.1862761378288269
1774159261118909700,6.03690966796875,-0.02214444987475872,2.306941270828247,-0.4625583291053772
1774159261138902800,6.05690283203125,-0.11748535186052322,1.5421282052993774,-0.14072676002979279
1774159261158895600,6.0768955078125,-0.36238884925842285,1.1329388618469238,0.5368351936340332
1774159261178888400,6.096888427734375,-0.2808662950992584,0.4602181911468506,0.552457332611084
1774159261198881500,6.116881591796875,-0.4015466272830963,-0.07618264853954315,-0.04790014773607254
1774159261218874600,6.13687451171875,-0.2903852164745331,-1.0724732875823975,-0.6529296040534973
1774159261238867500,6.156867431640625,0.16112923622131348,-2.0506746768951416,-0.6759305000305176
1774159261258860500,6.176860595703125,0.1510276049375534,-1.752494215965271,-0.768912136554718
1774159261278853600,6.196853515625,0.15142548084259033,-1.5513970851898193,-0.6511276960372925
1774159261298846500,6.216846435546875,-0.0027084348257631063,-1.668135166168213,-0.3695104122161865
1774159261318839600,6.236839599609375,-0.23478055000305176,-1.4782404899597168,-0.15912973880767822
1774159261338832600,6.25683251953125,-0.28756654262542725,-0.7972161769866943,0.027110712602734566
1774159261358825700,6.27682568359375,-0.14754818379878998,-0.2125583291053772,0.5140447020530701
1774159261378818600,6.296818603515625,-0.19866782426834106,-0.391369104385376,1.1071109771728516
1774159261398811600,6.316811767578125,-0.23108115792274475,-1.0481001138687134,0.004493818152695894
1774159261418804700,6.3368046875,-0.16201899945735931,0.2943224310874939,-0.2566041052341461
1774159261438797600,6.356797607421875,-0.0553751066327095,0.7439100742340088,-0.04318901523947716
1774159261458790700,6.376790771484375,0.03308258578181267,0.5344634056091309,0.003641340183094144
1774159261478783500,6.396783447265625,0.03640061989426613,0.2564041018486023,0.09122391790151596
1774159261498776600,6.416776611328125,-0.06425568461418152,0.0480135977268219,0.17895562946796417
1774159261518769400,6.436769287109375,-0.12181591987609863,0.2157898098230362,0.15137967467308044
1774159261538762500,6.456762451171875,-0.08371247351169586,0.0710587278008461,0.1477993130683899
1774159261558755600,6.476755615234375,-0.061895325779914856,0.12964721024036407,0.17156963050365448
1774159261578748400,6.49674853515625,-0.01619148626923561,0.24726012349128723,0.11160589009523392
1774159261598741500,6.516741455078125,0.004999552387744188,-0.057856108993291855,0.38170209527015686
1774159261618734600,6.536734619140625,0.06832312792539597,-0.5419932007789612,0.7291327714920044
1774159261638727700,6.556727783203125,0.026910442858934402,-0.8954247832298279,1.15842604637146
1774159261658720500,6.576720458984375,-0.02129303850233555,-0.6220536828041077,1.309652328491211
1774159261678713600,6.596713623046875,0.07370883971452713,-0.40189629793167114,1.0374666452407837
1774159261698706700,6.616706787109375,0.05693572014570236,-0.7872229814529419,0.43823885917663574
1774159261718699300,6.63669921875,0.04798004403710365,-0.7659221887588501,0.04304493963718414
1774159261738692400,6.6566923828125,0.1532507985830307,-1.0857266187667847,0.12085797637701035
1774159261758685400,6.676685546875,0.17695772647857666,-1.6874020099639893,0.3965148627758026
1774159261778678500,6.696678466796875,-0.01287451945245266,-1.455500602722168,0.7321389317512512
1774159261798671400,6.71667138671875,0.07851158827543259,-0.8928705453872681,0.5376166105270386
1774159261818664200,6.736664306640625,0.17596596479415894,-0.08780734986066818,-0.06761712580919266
1774159261838657300,6.7566572265625,0.1662725955247879,0.7437455058097839,-0.3016088604927063
1774159261858650000,6.776650146484375,0.16675622761249542,0.6544710397720337,-0.3153427839279175
1774159261878643200,6.796643310546875,0.1904309242963791,0.160194993019104,-0.40857845544815063
1774159261898636300,6.81663623046875,0.2798635959625244,-0.5537023544311523,-0.5123253464698792
1774159261918629400,6.83662939453125,0.23801442980766296,-1.4407024383544922,-0.36889228224754333
1774159261938623500,6.85662353515625,0.34145399928092957,-2.1175105571746826,0.14885897934436798
1774159261958616300,6.8766162109375,0.4804896414279938,-1.861138939857483,0.4191400110721588
1774159261978609400,6.896609375,0.4129641354084015,-1.2895082235336304,-0.04552913457155228
1774159261998602500,6.9166025390625,0.26711106300354004,-0.24665239453315735,-0.44026607275009155
1774159262018595300,6.93659521484375,0.16104428470134735,0.1129598394036293,-0.42963072657585144
1774159262038588200,6.956588134765625,0.0992637351155281,0.02563931606709957,-0.04481247812509537
1774159262058581200,6.976581298828125,-0.0023465112317353487,-0.285232812166214,0.014418620616197586
1774159262078574300,6.99657421875,-0.010876350104808807,-0.29854780435562134,-0.015752332285046577
1774159262098567200,7.016567138671875,0.05187731236219406,-0.23217731714248657,-0.040337834507226944
1774159262118560300,7.036560302734375,0.10693763196468353,-0.1978856474161148,-0.13118332624435425
1774159262138553300,7.05655322265625,0.13999678194522858,-0.20736064016819,-0.13380040228366852
1774159262158546200,7.076546142578125,0.1089794784784317,-0.35925617814064026,-0.07099428027868271
1774159262178539300,7.096539306640625,0.06665918976068497,-0.42539525032043457,-0.05308692157268524
1774159262198532400,7.116532470703125,0.052854958921670914,-0.20793509483337402,0.08982575684785843
1774159262218525400,7.136525390625,-0.044441498816013336,0.25396624207496643,0.34192991256713867
1774159262238518300,7.156518310546875,-0.148856058716774,0.5681992769241333,0.4719656705856323
1774159262258511400,7.176511474609375,-0.1778823882341385,0.3126412630081177,0.14374811947345734
1774159262278504400,7.19650439453125,-0.13359934091567993,0.4313865602016449,-0.07165873795747757
1774159262298497500,7.21649755859375,-0.12566205859184265,0.5996916890144348,-0.06839290261268616
1774159262318490400,7.236490478515625,-0.19357319176197052,0.5099735260009766,-0.07469581067562103
1774159262338483500,7.2564833984375,-0.24698315560817719,0.5269120335578918,-0.05916212499141693
1774159262358476300,7.276476318359375,-0.32294023036956787,0.585336446762085,-0.08187595754861832
1774159262378469000,7.29646923828125,-0.34550946950912476,0.6690965890884399,-0.10319375991821289
1774159262398462200,7.316462158203125,-0.392941951751709,0.7756765484809875,-0.14081090688705444
1774159262418455300,7.336455322265625,-0.46931344270706177,0.5379756093025208,-0.2662234306335449
1774159262438448400,7.356448486328125,-0.470460444688797,0.1748865842819214,-0.06570897251367569
1774159262458441200,7.376441162109375,-0.33459049463272095,-0.258816659450531,0.09070061147212982
1774159262478434300,7.396434326171875,-0.18143317103385925,-0.47707414627075195,0.19076116383075714
1774159262498427400,7.416427490234375,-0.15089869499206543,-0.357106477022171,0.201606884598732
1774159262518420200,7.436420166015625,-0.13848064839839935,-0.25607171654701233,0.12057941406965256
1774159262538413300,7.456413330078125,-0.10793019831180573,-0.3243136405944824,0.07750384509563446
1774159262558406400,7.476406494140625,-0.14356301724910736,-0.5042205452919006,0.16234657168388367
1774159262578399500,7.4963994140625,-0.18637840449810028,-0.5096334218978882,0.17114432156085968
1774159262598392300,7.516392333984375,-0.06491614878177643,-0.5144292712211609,0.15938326716423035
1774159262618385400,7.536385498046875,-0.039556995034217834,-0.6609835028648376,0.04246383532881737
1774159262638378500,7.55637841796875,-0.07359033077955246,-0.6251355409622192,0.07117804139852524
1774159262658371300,7.576371337890625,-0.08651411533355713,-0.5049539804458618,0.032339032739400864
1774159262678365200,7.596365234375,-0.05035744607448578,-0.5723106265068054,0.06365007907152176
1774159262698358300,7.616358154296875,0.0030146983917802572,-0.6481558680534363,0.1308799833059311
1774159262718352400,7.636352294921875,0.06107853353023529,-0.5757620930671692,0.03316780552268028
1774159262738345500,7.656345458984375,0.1701914370059967,-0.4385664463043213,-0.1675700843334198
1774159262758338300,7.67633837890625,0.22119922935962677,-0.459474116563797,-0.3003675639629364
1774159262778331400,7.696331298828125,0.24662601947784424,-0.4855635166168213,-0.2881617546081543
1774159262798324200,7.71632421875,0.3219098746776581,-0.44764596223831177,-0.22647841274738312
1774159262818317300,7.7363173828125,0.48885995149612427,-0.463320791721344,-0.2591540813446045
1774159262838310100,7.75631005859375,0.4883880615234375,-0.3068097233772278,-0.29313093423843384
1774159262858303200,7.77630322265625,0.4478693902492523,-0.15934811532497406,-0.33619773387908936
1774159262878296300,7.79629638671875,0.2968393862247467,-0.05343952402472496,-0.33919110894203186
1774159262898289400,7.816289306640625,0.1420346349477768,-0.02948678657412529,-0.2716887593269348
1774159262918282200,7.8362822265625,0.05002108961343765,-0.09488683193922043,-0.12266786396503448
1774159262938275300,7.856275390625,-0.00887844618409872,-0.24282090365886688,0.04585803672671318
1774159262958268400,7.876268310546875,-0.06895323842763901,-0.16637513041496277,0.09971167892217636
1774159262978261200,7.89626123046875,-0.08744995296001434,-0.2176995724439621,0.06706638634204865
1774159262998254300,7.91625439453125,-0.1623833179473877,-0.22938498854637146,-0.0006173207075335085
1774159263018247400,7.936247314453125,-0.19410236179828644,-0.2744251787662506,0.047795217484235764
1774159263038240500,7.956240478515625,-0.19412046670913696,-0.36707228422164917,0.016097743064165115
1774159263058233300,7.9762333984375,-0.08825156837701797,-0.4057094156742096,-0.010751980356872082
1774159263078226400,7.996226318359375,0.009911486878991127,-0.4227893352508545,-0.030190126970410347
1774159263098219500,8.016219482421874,0.04204758629202843,-0.3494059443473816,-0.01187929604202509
1774159263118213400,8.03621337890625,0.06484397500753403,-0.30152708292007446,0.011899003759026527
1774159263138206200,8.056206298828124,0.04585031419992447,-0.18402789533138275,0.08962468802928925
1774159263158199300,8.07619921875,0.050513505935668945,-0.0842757299542427,0.1216454729437828
1774159263178192400,8.0961923828125,-0.00695085059851408,-0.04020015150308609,0.11064102500677109
1774159263198185500,8.116185546875,-0.07691741734743118,-0.02291996218264103,0.0840163379907608
1774159263218178300,8.13617822265625,-0.18323667347431183,-0.07967884838581085,0.044198088347911835
1774159263238171400,8.15617138671875,-0.1542830467224121,-0.0025992451701313257,-0.011834821663796902
1774159263258164500,8.17616455078125,-0.15960723161697388,0.09374406933784485,-0.0033920682035386562
1774159263278157300,8.1961572265625,-0.18690118193626404,0.043415650725364685,0.052446696907281876
1774159263298150400,8.216150390625,-0.19008445739746094,0.04963120073080063,0.09854761511087418
1774159263318143500,8.2361435546875,-0.16080886125564575,-0.018612300977110863,0.1494198441505432
1774159263338136300,8.25613623046875,-0.11664379388093948,-0.06667356938123703,0.16634103655815125
1774159263358129200,8.276129150390625,-0.09976308047771454,-0.04294826462864876,0.14499473571777344
1774159263378122200,8.296122314453125,-0.08560704439878464,-0.06103432551026344,0.20459601283073425
1774159263398115300,8.316115234375,-0.06496994197368622,-0.013144830241799355,0.12571825087070465
1774159263418108200,8.336108154296875,-0.04609532281756401,0.007468036375939846,0.11096379905939102
1774159263438101200,8.356101318359375,-0.15846820175647736,0.021029651165008545,-0.07455306500196457
1774159263458094300,8.37609423828125,-0.3109320402145386,0.05029885843396187,-0.06692337244749069
1774159263478087400,8.39608740234375,-0.3483169674873352,0.004692223388701677,-0.028712071478366852
1774159263498081300,8.416081298828125,-0.20486712455749512,0.11665257811546326,-0.026550384238362312
1774159263518074400,8.436074462890625,-0.17751406133174896,0.04276344180107117,-0.06108758971095085
1774159263538067500,8.4560673828125,-0.10955765098333359,0.003525492735207081,-0.09190009534358978
1774159263558060300,8.476060302734375,-0.053459763526916504,0.05866304785013199,-0.06659500300884247
1774159263578053000,8.49605322265625,0.05332660302519798,0.07279936969280243,-0.05855119228363037
1774159263598046200,8.516046142578125,0.14078721404075623,0.005025917664170265,-0.07832303643226624
1774159263618039300,8.536039306640625,0.2506412863731384,-0.018936673179268837,-0.11427224427461624
1774159263638032400,8.556032470703125,0.2818806767463684,-0.016993364319205284,-0.1674148291349411
1774159263658025200,8.576025146484374,0.20917345583438873,-0.03677425906062126,-0.27895599603652954
1774159263678018300,8.596018310546874,0.19058619439601898,-0.08921483159065247,-0.389536589384079
1774159263698011400,8.616011474609374,0.196767657995224,-0.10763777792453766,-0.37062308192253113
1774159263718003700,8.636003662109376,0.24618206918239594,0.02973339520394802,-0.23999369144439697
1774159263737996800,8.655996826171876,0.07949855178594589,0.497991144657135,-0.26053091883659363
1774159263757990000,8.675989990234376,-0.3077961802482605,0.8352778553962708,-0.2854171097278595
1774159263777982700,8.695982666015626,-0.22678174078464508,0.5130108594894409,-0.28863605856895447
1774159263797975800,8.715975830078126,0.030370688065886497,0.37112000584602356,-0.2679142653942108
1774159263817969000,8.735968994140626,0.06139491870999336,0.3720068633556366,-0.18837442994117737
1774159263837962800,8.755962646484376,0.014799452386796474,0.2332521677017212,0.020787037909030914
1774159263857955800,8.775955810546876,-0.018497250974178314,0.10465770214796066,0.13228027522563934
1774159263877948700,8.79594873046875,-0.11940229684114456,0.0928601622581482,0.31109610199928284
1774159263897941800,8.815941650390625,-0.23402874171733856,0.11795087158679962,0.2917588949203491
1774159263917934800,8.835934814453125,-0.28091928362846375,0.291280061006546,0.20072750747203827
1774159263937927700,8.855927734375,-0.2128739207983017,0.30322858691215515,0.04055594652891159
1774159263957920800,8.875920654296875,-0.13345207273960114,0.33347490429878235,-0.10708916932344437
1774159263977913900,8.895913818359375,-0.1432812660932541,0.27338626980781555,-0.10657970607280731
1774159263997907000,8.915906982421875,-0.21904712915420532,0.2708898186683655,-0.15067632496356964
1774159264017899800,8.935899658203125,-0.2515595257282257,0.2641426920890808,-0.1264261156320572
1774159264037892900,8.955892822265625,-0.2435532659292221,0.13727742433547974,-0.03127483278512955
1774159264057886000,8.975885986328125,-0.20085081458091736,0.04229845479130745,0.0338602289557457
1774159264077878800,8.995878662109375,-0.1715046465396881,0.030542196705937386,0.08392366021871567
1774159264097872000,9.015871826171875,-0.13360226154327393,-0.007751929108053446,0.12625807523727417
1774159264117865000,9.035864990234375,-0.13458311557769775,-0.07581726461648941,0.11033210158348083
1774159264137857800,9.05585791015625,-0.14604029059410095,-0.099148690700531,0.1680566519498825
1774159264157852000,9.075851806640625,-0.1433108150959015,-0.0719761922955513,0.17175604403018951
1774159264177844700,9.0958447265625,-0.17000049352645874,-0.09563598036766052,0.18613950908184052
1774159264197837800,9.115837890625,-0.16300995647907257,-0.04134797304868698,0.2004806399345398
1774159264217831000,9.135830810546874,-0.17508766055107117,-0.12530705332756042,0.16359132528305054
1774159264237823700,9.15582373046875,-0.12453926354646683,-0.15890203416347504,0.1747949719429016
1774159264257816800,9.17581689453125,-0.13038091361522675,-0.23707805573940277,0.11263866722583771
1774159264277810000,9.195809814453124,-0.11914476752281189,-0.14294622838497162,0.07043395191431046
1774159264297803000,9.215802978515624,-0.14128069579601288,-0.24694028496742249,0.11367223411798477
1774159264317795800,9.2357958984375,-0.1237453743815422,-0.2773072421550751,0.09663040190935135
1774159264337789000,9.255788818359376,-0.13666276633739471,-0.24404355883598328,0.08264534175395966
1774159264357781800,9.27578173828125,-0.14514973759651184,-0.14389458298683167,0.07151519507169724
1774159264377774600,9.295774658203126,-0.10476529598236084,-0.1310485601425171,0.024529311805963516
1774159264397767700,9.315767578125,0.014569887891411781,-0.1414141207933426,-0.07972226291894913
1774159264417760800,9.3357607421875,-0.03164874017238617,-0.2134971022605896,-0.1872500479221344
1774159264437755000,9.3557548828125,-0.1691325604915619,-0.35390347242355347,-0.24104323983192444
1774159264457748000,9.375748046875,-0.10545265674591064,-0.3798253536224365,-0.26114052534103394
1774159264477740800,9.39574072265625,0.11303920298814774,-0.2914752662181854,-0.2653381824493408
1774159264497734000,9.41573388671875,0.19880710542201996,-0.13192953169345856,-0.34661200642585754
1774159264517727000,9.43572705078125,0.21384358406066895,-0.09105321019887924,-0.32475170493125916
1774159264537719800,9.4557197265625,0.20415446162223816,-0.07431364804506302,-0.2715979516506195
1774159264557713000,9.475712890625,0.12082468718290329,0.07041797041893005,-0.23848101496696472
1774159264577706000,9.4957060546875,0.035773977637290955,0.09033975005149841,-0.24018676578998566
1774159264597698800,9.51569873046875,-0.11919057369232178,0.10639701038599014,-0.2925349175930023
1774159264617691600,9.535691650390625,-0.14261840283870697,0.0811406597495079,-0.16377827525138855
1774159264637684700,9.555684814453125,-0.09766983240842819,0.020246149972081184,-0.20734626054763794
1774159264657677800,9.575677734375,-0.07465586066246033,0.034998465329408646,-0.21397407352924347
1774159264677670700,9.595670654296875,-0.06263701617717743,-0.03484506532549858,-0.4332776665687561
1774159264697663700,9.615663818359375,-0.15173333883285522,-0.2096773236989975,-0.33055394887924194
1774159264717657600,9.63565771484375,-0.40249311923980713,-0.30159181356430054,-0.38505446910858154
1774159264737650400,9.655650390625,-0.3557296097278595,-0.3479126989841461,-0.4183727502822876
1774159264757643500,9.6756435546875,-0.17382824420928955,-0.3444002568721771,-0.2471378892660141
1774159264777636600,9.69563671875,-0.0969150960445404,-0.22357183694839478,-0.036376383155584335
1774159264797629400,9.71562939453125,-0.04412005841732025,-0.04517893120646477,0.057309094816446304
1774159264817622500,9.73562255859375,-0.07685749977827072,0.06464610248804092,0.10771740972995758
1774159264837615600,9.75561572265625,-0.1327386051416397,0.05362434685230255,0.10170558840036392
1774159264857608400,9.7756083984375,-0.13423050940036774,-0.05582544952630997,0.060627661645412445
1774159264877601300,9.795601318359376,-0.11839428544044495,-0.15474137663841248,0.08580385148525238
1774159264897594400,9.815594482421876,-0.11070387810468674,-0.16489867866039276,0.10668276995420456
1774159264917587500,9.83558740234375,-0.14337021112442017,-0.16728432476520538,0.1190534234046936
1774159264937580300,9.855580322265626,-0.15981602668762207,-0.1395256668329239,0.1921396106481552
1774159264957574400,9.875574462890626,-0.1757664978504181,-0.04983733221888542,0.25675830245018005
1774159264977567500,9.8955673828125,-0.23139220476150513,-0.019460782408714294,0.2639557421207428
1774159264997560600,9.915560546875,-0.23972338438034058,-0.04182973876595497,0.2840612828731537
1774159265017553700,9.9355537109375,-0.1496233195066452,-0.09892898052930832,0.31381306052207947
1774159265037546500,9.95554638671875,-0.13917359709739685,-0.015231151133775711,0.3362472653388977
1774159265057539600,9.97553955078125,-0.0783909484744072,-0.06513106822967529,0.21295887231826782
1774159265077532400,9.995532470703125,-0.016692960634827614,-0.13901300728321075,0.21518129110336304
1774159265097525200,10.015525146484375,-0.07894408702850342,-0.13241715729236603,0.056720804423093796
1774159265117518300,10.035518310546875,-0.19684754312038422,-0.07044807076454163,0.21964633464813232
1774159265137511400,10.055511474609375,-0.186120867729187,-0.011977300979197025,0.15525083243846893
1774159265157504500,10.07550439453125,-0.06420348584651947,-0.005385976750403643,0.003862116253003478
1774159265177498400,10.095498291015625,-0.0038831550627946854,-0.168019101023674,-0.12478587031364441
1774159265197491500,10.115491455078125,0.06691697984933853,-0.2848309278488159,-0.1694132685661316
1774159265217484500,10.135484619140625,0.15658988058567047,-0.24093379080295563,-0.14169801771640778
1774159265237477600,10.1554775390625,0.18339486420154572,-0.2402099370956421,-0.022407304495573044
1774159265257470500,10.175470458984375,0.2823813557624817,-0.1592668890953064,-0.057672351598739624
1774159265277463600,10.195463623046875,0.3870584964752197,-0.12039858102798462,-0.1771382987499237
1774159265297456400,10.215456298828125,0.32994353771209717,-0.19757965207099915,-0.2947634756565094
1774159265317449200,10.23544921875,0.17266978323459625,-0.1955234259366989,-0.25190362334251404
1774159265337442300,10.2554423828125,0.13294899463653564,-0.07283905148506165,-0.11739480495452881
1774159265357435400,10.275435302734374,0.07130427658557892,0.09594304114580154,-0.1043596938252449
1774159265377428500,10.295428466796874,0.054059773683547974,0.18404041230678558,-0.11014407873153687
1774159265397421300,10.31542138671875,0.2000127136707306,0.177023246884346,-0.14898601174354553
1774159265417415400,10.33541552734375,0.3333987295627594,0.36910080909729004,-0.105427086353302
1774159265437408500,10.355408447265624,0.316316157579422,0.5267479419708252,-0.046793870627880096
1774159265457401600,10.375401611328124,0.005881058517843485,0.4115507900714874,-0.11259658634662628
1774159265477394400,10.39539453125,0.06728716194629669,0.464668333530426,-0.08828166127204895
1774159265497387500,10.415387451171876,0.336791068315506,0.7225744724273682,-0.0572904534637928
1774159265517380400,10.43538037109375,0.17332784831523895,0.42212700843811035,0.0012610068079084158
1774159265537373400,10.45537353515625,0.17165404558181763,0.3486914038658142,0.17697158455848694
1774159265557366300,10.4753662109375,-0.0412270650267601,0.20079781115055084,0.02947586588561535
1774159265577359400,10.495359375,-0.13719859719276428,0.2739090323448181,-0.06531082838773727
1774159265597352400,10.5153525390625,-0.07884714752435684,0.2680008113384247,-0.19691066443920135
1774159265617345300,10.53534521484375,-0.05865958333015442,0.21530592441558838,-0.37967514991760254
1774159265637339400,10.55533935546875,0.04950710013508797,0.14825259149074554,-0.4506686329841614
1774159265657332500,10.57533251953125,0.11137286573648453,0.018308699131011963,-0.21869638562202454
1774159265677325600,10.59532568359375,-0.009257947094738483,-0.06511801481246948,0.12189394980669022
1774159265697318700,10.615318603515625,-0.0855250209569931,0.08130577206611633,-0.03952823579311371
1774159265717311700,10.635311767578125,-0.06365939974784851,0.03672179579734802,0.0100198769941926
1774159265737304600,10.6553046875,-0.15312963724136353,0.10094552487134933,0.09879714995622635
1774159265757297700,10.675297607421875,-0.1115875169634819,0.06372571736574173,0.21756480634212494
1774159265777290500,10.69529052734375,-0.016453541815280914,-0.10578767955303192,0.30131563544273376
1774159265797283600,10.71528369140625,-0.05077529698610306,-0.14170919358730316,0.3939342498779297
1774159265817276700,10.735276611328125,-0.0884888544678688,-0.11556840687990189,0.34786128997802734
1774159265837270800,10.755270751953125,0.045998383313417435,0.035057853907346725,0.23149926960468292
1774159265857263900,10.775263916015625,-0.02732190117239952,-0.03196858614683151,0.1874830722808838
1774159265877256700,10.795256591796875,-0.07689052075147629,-0.23445963859558105,0.22143597900867462
1774159265897249800,10.815249755859375,-0.1900857836008072,-0.4962880611419678,0.3734596073627472
1774159265917243000,10.835242919921875,-0.08986517786979675,-0.11881347000598907,0.19701533019542694
1774159265937235700,10.855235595703125,0.008686432614922523,-0.09332968294620514,0.12604741752147675
1774159265957228500,10.875228515625,0.008275773376226425,-0.2592134475708008,0.3008035123348236
1774159265977221600,10.8952216796875,0.032095883041620255,-0.2824828326702118,0.2602244019508362
1774159265997214700,10.915214599609374,0.02581428736448288,-0.2769826054573059,0.2508988082408905
1774159266017207600,10.93520751953125,0.01727193035185337,-0.34790897369384766,0.3230030834674835
1774159266037201700,10.95520166015625,-0.08535724133253098,-0.2708461582660675,0.24975523352622986
1774159266057194800,10.97519482421875,-0.16679084300994873,-0.2354612499475479,0.1524832844734192
1774159266077187800,10.995187744140624,-0.17927095293998718,-0.19382034242153168,-0.05771602690219879
1774159266097180700,11.0151806640625,-0.04639652743935585,-0.23946158587932587,-0.09809647500514984
1774159266117173800,11.035173828125,0.04497146978974342,-0.28242024779319763,-0.07598584145307541
1774159266137166800,11.055166748046876,0.05447416007518768,-0.18965142965316772,-0.1454796940088272
1774159266157159700,11.07515966796875,0.021324995905160904,-0.04408889636397362,-0.17684587836265564
1774159266177152500,11.095152587890626,0.08565391600131989,0.10618129372596741,-0.19493913650512695
1774159266197145600,11.1151455078125,0.16306748986244202,0.25976553559303284,-0.2251734584569931
1774159266217138700,11.135138671875,0.16672800481319427,0.396188348531723,-0.23085612058639526
1774159266237132800,11.1551328125,0.1141742393374443,0.44662168622016907,-0.26212403178215027
1774159266257125600,11.175125732421876,0.05540067330002785,0.44315266609191895,-0.23671746253967285
1774159266277118700,11.19511865234375,0.06272143870592117,0.3425850570201874,-0.07534562051296234
1774159266297111800,11.21511181640625,0.11399021744728088,0.3210059702396393,-0.030522489920258522
1774159266317105000,11.23510498046875,0.12791907787322998,0.43627771735191345,-0.07513230293989182
1774159266337097700,11.25509765625,0.226692795753479,0.21468061208724976,0.11588478833436966
1774159266357090800,11.2750908203125,0.14064206182956696,0.3093344271183014,0.004284493625164032
1774159266377084000,11.295083984375,0.022948991507291794,0.19615405797958374,-0.114206463098526
1774159266397076500,11.315076416015625,-0.06168200448155403,0.007072024047374725,0.11692182719707489
1774159266417070600,11.335070556640625,-0.13773949444293976,-0.037100497633218765,0.11290205270051956
1774159266437063700,11.355063720703125,-0.18293839693069458,0.017830129712820053,0.10829797387123108
1774159266457056800,11.375056884765625,-0.23502130806446075,0.024323714897036552,0.16040538251399994
1774159266477049600,11.395049560546875,-0.15667536854743958,0.0628410130739212,0.12402500957250595
1774159266497042700,11.415042724609375,-0.016623983159661293,0.1980915069580078,0.08227836340665817
1774159266517035800,11.435035888671875,0.03014724887907505,0.2761354446411133,0.07657946646213531
1774159266537028900,11.45502880859375,0.03762700408697128,0.2935413420200348,0.09058848768472672
1774159266557021700,11.475021728515625,-0.06114031746983528,0.3017316162586212,0.07875020802021027
1774159266577014800,11.495014892578125,-0.10171651095151901,0.3282894492149353,0.09430226683616638
1774159266597008600,11.515008544921875,0.31919530034065247,0.9266276955604553,0.31029048562049866
1774159266617001700,11.535001708984375,0.004482366610318422,0.1762637048959732,0.22551462054252625
1774159266636994600,11.55499462890625,-0.03482269495725632,0.0904763713479042,0.3466700613498688
1774159266656987600,11.574987548828124,0.02767530269920826,0.12452594935894012,0.28331640362739563
1774159266676980700,11.594980712890624,0.1227235198020935,0.1526222974061966,0.2463330775499344
1774159266696973800,11.614973876953124,0.09934736043214798,0.10252104699611664,0.2706946134567261
1774159266716967200,11.63496728515625,0.09938011318445206,0.05807262286543846,0.2790646553039551
1774159266736960300,11.654960205078124,0.10486622899770737,-0.1692955493927002,0.32746362686157227
1774159266756953000,11.674953125,0.05899008363485336,-0.2769621014595032,0.2512500584125519
1774159266776947000,11.694947021484374,-0.012528042308986187,-0.3557101786136627,0.20480453968048096
1774159266796940000,11.71493994140625,-0.018734538927674294,-0.35302889347076416,0.1582825779914856
1774159266816933000,11.73493310546875,0.08051348477602005,-0.3537953495979309,0.15504977107048035
1774159266836926200,11.75492626953125,0.15719494223594666,-0.4863179922103882,0.1179111897945404
1774159266856919000,11.7749189453125,0.2598419487476349,-0.36148524284362793,0.0531790666282177
1774159266876912000,11.794912109375,0.38430505990982056,-0.36930641531944275,0.05938582867383957
1774159266896905200,11.8149052734375,0.4147079885005951,-0.30729949474334717,-0.01194081548601389
1774159266916898000,11.83489794921875,0.30313724279403687,-0.4247443675994873,-0.13993127644062042
1774159266936891100,11.85489111328125,0.11722196638584137,-0.3950192332267761,-0.12275680899620056
1774159266956885000,11.874885009765626,0.0651094913482666,-0.504266619682312,-0.11527039855718613
1774159266976878000,11.894878173828126,0.03608370199799538,-0.452711284160614,-0.13656876981258392
1774159266996871200,11.91487109375,0.06036294251680374,-0.3867216110229492,-0.23078501224517822
1774159267016864000,11.934864013671875,0.08702144771814346,-0.4163716435432434,-0.15568147599697113
1774159267036857000,11.954857177734375,0.020075440406799316,-0.4254554212093353,-0.08652050793170929
1774159267056850200,11.97485009765625,-0.03550446406006813,-0.4899633228778839,-0.016941167414188385
1774159267076843000,11.994843017578125,-0.06245565414428711,-0.3335859477519989,0.011427357792854309
1774159267096836000,12.014836181640625,-0.21308830380439758,-0.07601087540388107,0.024522120133042336
1774159267116830200,12.034830322265625,-0.2742195725440979,-0.2056431770324707,-0.07137618213891983
1774159267136823300,12.0548232421875,-0.11854076385498047,-0.21980640292167664,-0.04782664403319359
1774159267156816100,12.074816162109375,-0.0004362257895991206,-0.1868005096912384,-0.2057398408651352
1774159267176809000,12.09480908203125,0.002892459277063608,-0.09029847383499146,0.010403638705611229
1774159267196802000,12.114802001953125,-0.04267715662717819,-0.052808620035648346,0.14610661566257477
1774159267216795100,12.134795166015625,-0.1006842628121376,-0.03296114504337311,0.15107101202011108
1774159267236788000,12.1547880859375,-0.13470135629177094,0.06305752694606781,0.12949328124523163
1774159267256781000,12.174781005859375,-0.14028839766979218,0.055215053260326385,0.1275840550661087
1774159267276775200,12.194775146484375,-0.0909661278128624,0.12293338030576706,0.12121670693159103
1774159267296768300,12.214768310546875,-0.02695412002503872,0.037876807153224945,0.07245342433452606
1774159267316761000,12.234760986328125,0.03213636577129364,0.012736035510897636,0.08699508756399155
1774159267336754200,12.254754150390625,0.055579639971256256,-0.03485039249062538,0.1503807157278061
1774159267356747300,12.274747314453125,-0.016771789640188217,-0.10599194467067719,0.21014924347400665
1774159267376740000,12.294739990234374,-0.05361688882112503,-0.1801828145980835,0.14349937438964844
1774159267396733000,12.31473291015625,-0.049861833453178406,-0.2472904771566391,0.04933559149503708
1774159267416726000,12.33472607421875,-0.04074396565556526,-0.27780550718307495,0.050164900720119476
1774159267436720000,12.35472021484375,-0.07371523231267929,-0.2955869138240814,-0.007163903210312128
1774159267456713200,12.374713134765624,-0.0964282676577568,-0.22757349908351898,-0.015033544041216373
1774159267476706000,12.3947060546875,-0.060326725244522095,-0.17492254078388214,-0.144859179854393
1774159267496699100,12.41469921875,0.002728408435359597,-0.18811024725437164,-0.24253301322460175
1774159267516692200,12.434692138671876,0.10874006152153015,-0.15110163390636444,-0.3214257061481476
1774159267536685300,12.454685302734376,0.2040434181690216,-0.21897442638874054,-0.20639045536518097
1774159267556678100,12.47467822265625,0.03485838323831558,-0.0975758284330368,-0.26807060837745667
1774159267576671200,12.494671142578126,-0.05146585404872894,-0.17134645581245422,-0.34394538402557373
1774159267596665000,12.5146650390625,-0.004773183725774288,-0.10788412392139435,-0.14693938195705414
1774159267616658200,12.534658203125,-0.1364787518978119,-0.0287080779671669,-0.07633978128433228
1774159267636651000,12.554651123046876,-0.17684507369995117,-0.013686250895261765,-0.03283730894327164
1774159267656644000,12.57464404296875,-0.12904080748558044,0.11465281248092651,0.03496277704834938
1774159267676637200,12.59463720703125,-0.07894647866487503,0.07127391546964645,0.22863024473190308
1774159267696630000,12.614630126953125,-0.04253494367003441,-0.233676940202713,0.33799880743026733
1774159267716622600,12.63462255859375,-0.10750648379325867,-0.09570682048797607,0.49702680110931396
1774159267736616700,12.65461669921875,-0.17563466727733612,0.36405810713768005,0.464893102645874
1774159267756609800,12.67460986328125,-0.33725231885910034,1.1420832872390747,0.3139004111289978
1774159267776602600,12.6946025390625,-0.1964680552482605,2.2112884521484375,0.06089450791478157
1774159267796595700,12.714595703125,0.09561014920473099,2.021153450012207,-0.5337275862693787
1774159267816588500,12.734588623046875,0.3412148356437683,1.520199179649353,-0.356734961271286
1774159267836581600,12.75458154296875,0.325317919254303,0.7034217715263367,0.15077459812164307
1774159267856574700,12.77457470703125,0.25672873854637146,-0.4932384788990021,0.7153578400611877
1774159267876567600,12.794567626953125,0.2989286482334137,-1.1059327125549316,0.882789671421051
1774159267896561700,12.814561767578125,0.45779818296432495,-0.9314088821411133,0.5392214059829712
1774159267916554800,12.8345546875,0.5671404004096985,-0.07634616643190384,0.0787893533706665
1774159267936547800,12.8545478515625,0.4609404504299164,0.1025165244936943,-0.16968783736228943
1774159267956540700,12.874540771484375,0.398355096578598,-0.12099432945251465,-0.0025691515766084194
1774159267976533800,12.89453369140625,0.3108974099159241,-0.38220489025115967,0.19168713688850403
1774159267996526600,12.914526611328125,0.23773346841335297,-0.4899124503135681,0.26017192006111145
1774159268016519700,12.934519775390624,0.17610685527324677,-0.4003516733646393,0.33104875683784485
1774159268036513800,12.954513671875,0.0018599516479298472,-0.3140506148338318,0.3838097155094147
1774159268056506600,12.974506591796874,-0.08129032701253891,-0.3692496716976166,0.37195518612861633
1774159268076499700,12.994499755859374,0.013880928047001362,-0.34382688999176025,0.3215564489364624
1774159268096492800,13.014492919921874,0.09489002823829651,-0.1243981197476387,0.31461626291275024
1774159268116485600,13.034485595703124,0.08298622816801071,-0.09842990338802338,0.31824055314064026
1774159268136478700,13.054478759765624,0.1324256807565689,-0.09055599570274353,0.3522863984107971
1774159268156471800,13.074471923828124,0.15708628296852112,-0.14237073063850403,0.36745259165763855
1774159268176465700,13.094465576171874,0.1660723239183426,-0.23888927698135376,0.41119685769081116
1774159268196458800,13.114458740234374,0.16808567941188812,-0.2384519875049591,0.44335585832595825
1774159268216451600,13.13445166015625,0.17268575727939606,-0.25709331035614014,0.4786480665206909
1774159268236444700,13.154444580078126,0.19731414318084717,-0.4364281892776489,0.5896171927452087
1774159268256437800,13.174437744140626,0.22511087357997894,-0.6618975400924683,0.6280050873756409
1774159268276430600,13.1944306640625,0.3158589005470276,-0.6015625596046448,0.5733868479728699
1774159268296423700,13.214423583984376,0.3916809558868408,-0.4640110731124878,0.5804551243782043
1774159268316417800,13.234417724609376,0.448790043592453,-0.6135571599006653,0.6974371671676636
1774159268336411000,13.254410888671876,0.4540218114852905,-0.8288036584854126,0.8359681367874146
1774159268356403700,13.27440380859375,0.4170062839984894,-0.6847101449966431,0.9343684911727905
1774159268376396500,13.294396484375,0.3718204200267792,-0.8188471794128418,0.9743313193321228
1774159268396389600,13.3143896484375,0.2536434531211853,-0.6041830778121948,0.8664003610610962
1774159268416382700,13.3343828125,0.10657784342765808,-0.2438395619392395,0.8138388395309448
1774159268436375600,13.35437548828125,-0.03129161149263382,-0.3035561442375183,0.8039305806159973
1774159268456369700,13.37436962890625,-0.04093358293175697,-0.2578834593296051,0.7820377945899963
1774159268476362800,13.39436279296875,0.017536649480462074,-0.34683758020401,0.6007654666900635
1774159268496355800,13.41435595703125,0.10572642832994461,-0.14840784668922424,0.37887993454933167
1774159268516348700,13.4343486328125,0.12380822747945786,0.04899017885327339,0.27309972047805786
1774159268536341800,13.454341796875,0.1516353338956833,-0.11225996166467667,0.20855826139450073
1774159268556334800,13.4743349609375,0.21468167006969452,-0.32057321071624756,0.06963074207305908
1774159268576327700,13.49432763671875,0.22622860968112946,-0.3873533010482788,-0.19448772072792053
1774159268596321500,13.514321533203125,0.21345634758472443,-0.24142301082611084,-0.5758904814720154
1774159268616314600,13.534314697265625,0.08757458627223969,0.12343085557222366,-0.783259391784668
1774159268636307700,13.5543076171875,0.03165832906961441,0.047735296189785004,-0.7427457571029663
1774159268656300800,13.57430078125,-0.021579060703516006,-0.007071225438266993,-0.6202923059463501
1774159268676293600,13.594293701171875,-0.020439494401216507,-0.0872369036078453,-0.47701770067214966
1774159268696286700,13.61428662109375,-0.06912447512149811,0.0037505298387259245,-0.3728920817375183
1774159268716280000,13.634280029296875,-0.15045315027236938,0.16719910502433777,-0.4740586578845978
1774159268736274000,13.65427392578125,-0.2453082948923111,0.329985111951828,-0.681046724319458
1774159268756266800,13.674266845703125,-0.3396425247192383,0.4954766035079956,-0.7948755621910095
1774159268776259800,13.694259765625,-0.41235214471817017,0.6411075592041016,-0.6909435391426086
1774159268796253000,13.7142529296875,-0.4259057641029358,0.8530474901199341,-0.6116098761558533
1774159268816246000,13.73424609375,-0.3620295822620392,1.2959059476852417,-0.5766164660453796
1774159268836238800,13.75423876953125,-0.16804705560207367,1.703408122062683,-0.5081148743629456
1774159268856232000,13.77423193359375,0.03960919380187988,1.82327139377594,-0.20452837646007538
1774159268876226000,13.79422607421875,0.1391775906085968,1.5739964246749878,0.11319739371538162
1774159268896219100,13.81421923828125,0.0890132263302803,1.3866523504257202,0.02317642606794834
1774159268916212000,13.8342119140625,0.14131611585617065,1.6279059648513794,-0.31376883387565613
1774159268936204800,13.854204833984374,0.27494847774505615,1.6490790843963623,-0.5106848478317261
1774159268956198000,13.874197998046874,0.3327675759792328,1.1080774068832397,-0.4983578622341156
1774159268976191000,13.89419091796875,0.24705718457698822,0.919098973274231,-0.32145631313323975
1774159268996185000,13.91418505859375,0.279365599155426,1.291785478591919,-0.027225229889154434
1774159269016178000,13.934177978515624,0.29606467485427856,1.373762845993042,0.17529432475566864
1774159269036171000,13.9541708984375,0.21218335628509521,0.9281736612319946,0.2477341741323471
1774159269056164000,13.9741640625,0.11640623956918716,0.6813689470291138,0.2172739952802658
1774159269076157000,13.994156982421876,0.017427992075681686,0.5662018656730652,0.26224759221076965
1774159269096150000,14.01414990234375,-0.04878857731819153,0.3910069167613983,0.27271169424057007
1774159269116143900,14.034143798828126,-0.01884559355676174,0.2362080067396164,0.1531195044517517
1774159269136137000,14.054136962890626,0.1708654910326004,0.027717115357518196,0.046666838228702545
1774159269156129800,14.0741298828125,0.39968881011009216,-0.2122102677822113,-0.0345931313931942
1774159269176123000,14.094122802734375,0.3094310760498047,0.14345329999923706,-0.08094704896211624
1774159269196116000,14.114115966796875,0.15412777662277222,0.2368631362915039,-0.10134206712245941
1774159269216109000,14.134109130859375,0.0005430185701698065,0.3034735918045044,-0.08842360228300095
1774159269236102000,14.154101806640625,-0.023802800104022026,0.24791446328163147,-0.13652828335762024
1774159269256096000,14.174095947265625,-0.06334301829338074,0.2700149714946747,-0.275225967168808
1774159269276088800,14.1940888671875,-0.0670248419046402,0.17074723541736603,-0.4991789162158966
1774159269296082000,14.21408203125,0.029035912826657295,0.18860666453838348,-0.6621526479721069
1774159269316074800,14.23407470703125,0.19464777410030365,0.5323173999786377,-0.4643296003341675
1774159269336067800,14.25406787109375,0.30778446793556213,0.4291039705276489,-0.19722704589366913
1774159269356061000,14.27406103515625,0.17035256326198578,0.20895960927009583,-0.087531179189682
1774159269376055000,14.294054931640625,-0.10214713960886002,-0.355130672454834,-0.055868592113256454
1774159269396048100,14.314048095703125,-0.13381265103816986,-0.9161548614501953,-0.08883479982614517
1774159269416041000,14.334041015625,-0.2432669848203659,-1.1260710954666138,-0.09832151234149933
1774159269436034000,14.354033935546875,-0.46423929929733276,-1.2319979667663574,-0.0046541402116417885
1774159269456027100,14.374027099609375,-0.5844535827636719,-0.9939862489700317,0.22996821999549866
1774159269476020000,14.39402001953125,-0.4942113161087036,-0.38856691122055054,0.5637634992599487
1774159269496012800,14.4140126953125,-0.571590781211853,-0.6061192154884338,0.8212757110595703
1774159269516007000,14.4340068359375,-0.7329485416412354,-1.3106709718704224,0.7694476842880249
1774159269536000000,14.454,-0.8036850094795227,-1.6138529777526855,0.5637446045875549
1774159269555992800,14.473992919921875,-0.6994443535804749,-1.3726171255111694,0.3491707742214203
1774159269575986000,14.49398583984375,-0.6009593605995178,-1.3741381168365479,0.10025043785572052
1774159269595979000,14.51397900390625,-0.6064137816429138,-1.097089409828186,-0.028609273955225945
1774159269615972000,14.53397216796875,-0.5763706564903259,-0.28807759284973145,-0.12569187581539154
1774159269635966000,14.553966064453125,-0.5891745686531067,-0.37047818303108215,-0.11511726677417755
1774159269655958800,14.573958740234374,-0.5900582075119019,-0.617309033870697,0.0007315703551284969
1774159269675951900,14.593951904296874,-0.5840876698493958,-0.6290248036384583,0.0819273591041565
1774159269695945000,14.613945068359374,-0.565984845161438,-0.4702087938785553,0.021999308839440346
1774159269715937800,14.633937744140624,-0.5702264904975891,-0.20514222979545593,-0.04962454363703728
1774159269735931100,14.65393115234375,-0.595189094543457,-0.10105045139789581,-0.06936469674110413
1774159269755925200,14.67392529296875,-0.5989468097686768,-0.14133794605731964,-0.11519955843687057
1774159269775918000,14.69391796875,-0.5536474585533142,-0.16068634390830994,-0.12449851632118225
1774159269795911200,14.7139111328125,-0.4593515992164612,-0.1801798939704895,-0.12037461251020432
1774159269815904300,14.733904296875,-0.38224804401397705,-0.15567907691001892,-0.12417521327733994
1774159269835897000,14.75389697265625,-0.2834266424179077,-0.020793961361050606,-0.1239781379699707
1774159269855890000,14.773889892578126,-0.1754293441772461,0.15173174440860748,-0.05529867485165596
1774159269875884000,14.793884033203126,-0.0041010016575455666,0.22088897228240967,0.0789605975151062
1774159269895877000,14.813877197265626,0.1124194860458374,-0.0037819549906998873,0.14907203614711761
1774159269915870200,14.8338701171875,0.24120542407035828,-0.40308061242103577,0.27303287386894226
1774159269935863000,14.853863037109376,0.40168166160583496,-0.5651736259460449,0.19566217064857483
1774159269955856100,14.873856201171876,0.5396707057952881,-0.17439258098602295,0.09679818153381348
1774159269975849200,14.89384912109375,0.6812214255332947,0.1844010055065155,-0.03446423262357712
1774159269995843000,14.913843017578126,0.7635671496391296,0.41713544726371765,-0.035052791237831116
1774159270015836000,14.9338359375,0.7852258682250977,0.38675251603126526,0.010807639919221401
1774159270035829000,14.9538291015625,0.7377030849456787,0.5475938320159912,0.07156446576118469
1774159270055822000,14.973822021484375,0.6438647508621216,0.8505153656005859,0.098357193171978
1774159270075815000,14.99381494140625,0.5261372923851013,1.1028515100479126,-0.00004314320904086344
1774159270095808000,15.01380810546875,0.4473857581615448,1.1956101655960083,-0.12455151230096817
1774159270115802000,15.033802001953125,0.5150876045227051,1.0422238111495972,-0.1372646540403366
1774159270135795200,15.053795166015625,0.6000762581825256,0.8956807255744934,0.04839975759387016
1774159270155788300,15.073788330078125,0.6583829522132874,0.7798369526863098,0.2592076063156128
1774159270175781000,15.093781005859375,0.6410257816314697,0.5459136366844177,0.14195580780506134
1774159270195774000,15.11377392578125,0.5610561370849609,0.4351104497909546,-0.07149682193994522
1774159270215767000,15.13376708984375,0.5613458752632141,0.40326249599456787,0.014117416925728321
1774159270235761200,15.15376123046875,0.5271844267845154,0.4430235028266907,0.13398949801921844
1774159270255754000,15.17375390625,0.48393872380256653,0.47731703519821167,0.015312910079956055
1774159270275747000,15.1937470703125,0.5013025403022766,0.5979819297790527,-0.0981215089559555
1774159270295740200,15.213740234375,0.5974780321121216,0.7523712515830994,0.09875533729791641
1774159270315733200,15.233733154296875,0.4557371735572815,0.3188312351703644,0.36110466718673706
1774159270335726000,15.25372607421875,0.21650753915309906,-0.13742443919181824,0.3306143879890442
1774159270355720000,15.273719970703125,-0.0015515576815232635,0.13482679426670074,0.2642311155796051
1774159270375713000,15.293713134765625,-0.06285752356052399,0.3382408916950226,0.2041717767715454
1774159270395706000,15.3137060546875,0.0091719264164567,0.10433439165353775,0.13673360645771027
1774159270415699000,15.333698974609375,0.10769929736852646,-0.2008500099182129,0.14387035369873047
1774159270435692000,15.353692138671875,0.18647560477256775,-0.3542132079601288,0.06675532460212708
1774159270455685000,15.37368505859375,0.19722838699817657,-0.24413490295410156,-0.051048003137111664
1774159270475679200,15.39367919921875,0.1782110184431076,-0.056833188980817795,-0.05098462104797363
1774159270495672000,15.413672119140625,0.09726210683584213,-0.05771629139780998,0.03346315026283264
1774159270515665200,15.4336650390625,-0.00936074461787939,-0.30181658267974854,-0.21608436107635498
1774159270535658200,15.453658203125,-0.15908099710941315,0.009148224256932735,-0.46203288435935974
1774159270555651000,15.473651123046874,-0.32860317826271057,0.12228783220052719,-0.3940517008304596
1774159270575644000,15.493643798828124,-0.3747142255306244,-0.30549973249435425,-0.3686736226081848
1774159270595638000,15.513637939453124,-0.3389810025691986,-0.1570253074169159,-0.2257566899061203
1774159270615631000,15.533631103515624,-0.35335540771484375,-0.3287331461906433,-0.07442762702703476
1774159270635624200,15.553624267578124,-0.3792085647583008,-0.7745804190635681,-0.17579366266727448
1774159270655617000,15.573616943359376,-0.3652629256248474,-1.2537565231323242,-0.30644726753234863
1774159270675610000,15.593610107421876,-0.39656439423561096,-1.2572765350341797,-0.03789545223116875
1774159270695603200,15.613603271484376,-0.4154704511165619,-0.8483648896217346,0.39431214332580566
1774159270715597000,15.63359716796875,-0.29618826508522034,-0.44538307189941406,0.684333086013794
1774159270735590100,15.653590087890626,-0.2984098494052887,-0.48677682876586914,0.7610698938369751
1774159270755583200,15.673583251953126,-0.34977611899375916,-0.9633207321166992,0.5786516666412354
1774159270775576300,15.693576416015626,-0.28720328211784363,-1.7993735074996948,0.19737352430820465
1774159270795569400,15.7135693359375,-0.12493687868118286,-1.7050797939300537,-0.2032655030488968
1774159270815563500,15.7335634765625,-0.15317730605602264,-1.0750489234924316,-0.34641334414482117
1774159270835556400,15.753556396484376,-0.27797117829322815,-1.3359532356262207,-0.3042408525943756
1774159270855549400,15.773549560546876,-0.39896389842033386,-1.441756010055542,-0.12858673930168152
1774159270875542500,15.79354248046875,-0.35216522216796875,-1.4095267057418823,-0.0626082569360733
1774159270895535000,15.81353515625,-0.2881436347961426,-1.379492163658142,-0.07377142459154129
1774159270915528200,15.833528076171875,-0.22899696230888367,-1.1062307357788086,-0.023329291492700577
1774159270935522300,15.853522216796875,-0.1923806369304657,-0.7046042680740356,0.06155630573630333
1774159270955515400,15.873515380859375,-0.13949185609817505,-0.5496492981910706,0.16820286214351654
1774159270975508200,15.89350830078125,-0.05730190500617027,-0.4727334678173065,0.19378864765167236
1774159270995501300,15.913501220703125,0.09241515398025513,-0.44781744480133057,0.015510782599449158
1774159271015494400,15.933494384765625,0.22133664786815643,-0.054362040013074875,-0.13612668216228485
1774159271035487500,15.953487548828125,0.27845320105552673,0.2276986688375473,-0.12516537308692932
1774159271055481300,15.9734814453125,0.317551851272583,0.13832032680511475,0.0021696772892028093
1774159271075474200,15.99347412109375,0.32948070764541626,-0.1386854499578476,0.163145512342453
1774159271095467300,16.01346728515625,0.34569722414016724,-0.13852858543395996,0.1606922149658203
1774159271115460400,16.03346044921875,0.45422154664993286,0.5087993144989014,-0.13020886480808258
1774159271135453200,16.053453125,0.45736753940582275,1.0149575471878052,-0.45251020789146423
1774159271155447300,16.073447265625,0.4246399700641632,0.9391800165176392,-0.6447520852088928
1774159271175440400,16.0934404296875,0.4445582926273346,0.515625,-0.5959517955780029
1774159271195433500,16.11343359375,0.4933372735977173,0.3286636471748352,-0.25967445969581604
1774159271215426300,16.13342626953125,0.5168047547340393,0.3369617760181427,0.10357353091239929
1774159271235419400,16.15341943359375,0.39965978264808655,0.630695104598999,0.18523722887039185
1774159271255412200,16.173412109375,0.2617032527923584,0.853043794631958,0.23075518012046814
1774159271275406300,16.19340625,0.12619414925575256,0.9071909189224243,0.3045412600040436
1774159271295399400,16.2133994140625,0.01840643770992756,0.9256157279014587,0.30865851044654846
1774159271315392300,16.233392333984376,-0.0011494202772155404,1.017733097076416,0.2306784838438034
1774159271335385300,16.25338525390625,0.09082311391830444,1.074288249015808,0.13247175514698029
1774159271355378400,16.27337841796875,0.18262360990047455,1.113229513168335,0.08364029973745346
1774159271375372300,16.293372314453126,0.27013322710990906,1.1267820596694946,0.10405343025922775
1774159271395365000,16.313365234375,0.3426801264286041,1.0236778259277344,0.18759040534496307
1774159271415358200,16.333358154296874,0.3667100965976715,0.918280839920044,0.19630160927772522
1774159271435351300,16.353351318359376,0.3097376227378845,0.8849356770515442,0.12454698979854584
1774159271455344400,16.373344482421874,0.22234678268432617,0.9348984360694885,0.09102391451597214
1774159271475337200,16.393337158203124,0.16611866652965546,0.9612112641334534,0.06556329876184464
1774159271495331300,16.413331298828126,0.17190757393836975,0.9147018194198608,0.031612787395715714
1774159271515324400,16.433324462890624,0.1636086404323578,0.7865124344825745,0.08354256302118301
1774159271535317500,16.4533173828125,0.11599557846784592,0.6842145323753357,0.18386784195899963
1774159271555310300,16.473310302734376,0.059416987001895905,0.5988677144050598,0.14373213052749634
1774159271575303400,16.493303466796874,0.03556997701525688,0.45307135581970215,-0.04676990211009979
1774159271595297300,16.51329736328125,0.06975484639406204,0.30179765820503235,-0.09930607676506042
1774159271615290400,16.533290283203126,0.09297335147857666,0.16032016277313232,-0.018261561170220375
1774159271635283200,16.553283203125,0.07634297758340836,0.03564747795462608,-0.023688284680247307
1774159271655276300,16.5732763671875,0.007774033583700657,-0.12232564389705658,-0.1530420184135437
1774159271675269400,16.593269287109376,-0.03851090744137764,-0.3884982168674469,-0.3708345293998718
1774159271695262500,16.613262451171874,-0.12920352816581726,-0.5917407870292664,-0.6234457492828369
1774159271715256300,16.63325634765625,-0.1906178891658783,-0.5918633341789246,-0.565459668636322
1774159271735248600,16.65324853515625,-0.1685250997543335,-0.625909686088562,-0.3346797227859497
1774159271755241700,16.67324169921875,-0.11269352585077286,-0.7189829349517822,-0.3015928566455841
1774159271775234600,16.693234619140625,0.01799391396343708,-0.6746556758880615,-0.18076418340206146
1774159271795227600,16.7132275390625,0.02973153069615364,-0.885621964931488,0.00603392394259572
1774159271815221500,16.733221435546874,-0.005673598498106003,-1.0014936923980713,0.16037076711654663
1774159271835214600,16.753214599609375,-0.12008379399776459,-1.057839274406433,0.17484691739082336
1774159271855207700,16.773207763671873,-0.3404774069786072,-1.1244398355484009,0.17033924162387848
1774159271875200500,16.793200439453123,-0.5141634345054626,-0.6573467254638672,0.2780561149120331
1774159271895193600,16.813193603515625,-0.6196102499961853,-0.04561888426542282,0.30345627665519714
1774159271915187700,16.833187744140623,-0.5786116719245911,-0.012631372548639774,0.10481882095336914
1774159271935180500,16.8531806640625,-0.41343551874160767,-0.582939088344574,-0.24058224260807037
1774159271955173400,16.87317333984375,-0.24789048731327057,-0.5927453637123108,-0.38685157895088196
1774159271975166500,16.89316650390625,-0.17582163214683533,-0.4599774479866028,-0.37901416420936584
1774159271995159600,16.91315966796875,-0.18439966440200806,-0.5201204419136047,-0.29902905225753784
1774159272015152600,16.933152587890625,-0.18352748453617096,-0.4483349025249481,-0.17980757355690002
1774159272035146500,16.953146484375,-0.23763012886047363,-0.3482791483402252,-0.06785041838884354
1774159272055139600,16.9731396484375,-0.2445535510778427,-0.4496137499809265,-0.00367143377661705
1774159272075132700,16.993132568359375,-0.27729979157447815,-0.40117165446281433,-0.017188308760523796
1774159272095125800,17.013125732421877,-0.3388028144836426,-0.2679819166660309,-0.038055241107940674
1774159272115118600,17.03311865234375,-0.4064295291900635,-0.26844263076782227,-0.1022677794098854
1774159272135112400,17.053112548828125,-0.4523903727531433,-0.11451566219329834,-0.09677235037088394
1774159272155105500,17.07310546875,-0.5030159950256348,-0.1398649513721466,0.002567287301644683
1774159272175098600,17.0930986328125,-0.5097641944885254,-0.2702418863773346,0.039148733019828796
1774159272195091500,17.113091552734375,-0.43654030561447144,0.02058836631476879,-0.014677479863166809
1774159272215084500,17.13308447265625,-0.2943283021450043,0.23169341683387756,0.017611751332879066
1774159272235078700,17.15307861328125,-0.13582654297351837,0.002779008587822318,0.04851293936371803
1774159272255071700,17.17307177734375,-0.010885404422879219,-0.067562535405159,0.009797769598662853
1774159272275064600,17.193064697265626,0.06693749129772186,-0.06751991808414459,-0.03308657929301262
1774159272295057400,17.213057373046876,0.15665672719478607,-0.15035435557365417,-0.0799102783203125
1774159272315050500,17.233050537109374,0.3157467842102051,-0.3511148691177368,-0.13294526934623718
1774159272335043600,17.253043701171876,0.4982854127883911,-0.061415690928697586,-0.15168726444244385
1774159272355037700,17.27303759765625,0.5907346606254578,0.48845863342285156,-0.26430249214172363
1774159272375030500,17.293030517578124,0.5581666231155396,0.7556860446929932,-0.31274405121803284
1774159272395023600,17.313023681640626,0.5564329028129578,0.6251416206359863,-0.2137562334537506
1774159272415016700,17.3330166015625,0.5522037744522095,0.2995337247848511,0.031505461782217026
1774159272435009500,17.353009521484374,0.4686918556690216,0.5244078636169434,0.17052966356277466
1774159272455003400,17.37300341796875,0.33043569326400757,1.0890611410140991,0.10837467759847641
1774159272474996500,17.39299658203125,0.23609934747219086,1.4195096492767334,0.0284726545214653
1774159272494989600,17.412989501953124,0.2817310094833374,1.389817714691162,0.05964628607034683
1774159272514982400,17.432982421875,0.35602042078971863,1.0086592435836792,0.23543435335159302
1774159272534975500,17.4529755859375,0.24120676517486572,0.640396773815155,0.488240510225296
1774159272554969600,17.472969482421874,0.05814559385180473,0.8647664785385132,0.44725874066352844
1774159272574962700,17.492962646484376,-0.07539621740579605,1.0876693725585938,0.3524547219276428
1774159272594955800,17.512955810546874,-0.12050271034240723,0.9977317452430725,0.3417200446128845
1774159272614948600,17.532948486328124,-0.0724150761961937,0.9788339138031006,0.39672043919563293
1774159272634941700,17.552941650390625,0.006642988882958889,0.9821495413780212,0.38719937205314636
1774159272654935600,17.572935546875,0.09196427464485168,0.8121325373649597,0.2722568213939667
1774159272674928600,17.5929287109375,0.14145833253860474,0.5695039629936218,0.2469903528690338
1774159272694921500,17.61292138671875,0.19319476187229156,0.4394455552101135,0.25794100761413574
1774159272714914600,17.63291455078125,0.2044018805027008,0.36209723353385925,0.17529618740081787
1774159272734908200,17.652908203125,0.18463163077831268,0.30669069290161133,0.09333580732345581
1774159272754902000,17.672902099609374,0.13947933912277222,0.24081766605377197,0.07059134542942047
1774159272774895000,17.69289501953125,0.10119479149580002,0.16236254572868347,0.061520617455244064
1774159272794888000,17.712887939453125,0.06987947970628738,0.1200113594532013,0.048653822392225266
1774159272814881000,17.732881103515624,0.11582167446613312,0.10554853081703186,-0.046785082668066025
1774159272834874000,17.7528740234375,0.1671551614999771,-0.01871190220117569,-0.045220740139484406
1774159272854867000,17.772866943359375,0.16693200170993805,-0.18878136575222015,0.006593986880034208
1774159272874861000,17.792861083984373,0.12910792231559753,-0.19085277616977692,-0.014708638191223145
1774159272894854100,17.812854248046875,0.13583560287952423,-0.18082810938358307,-0.18929216265678406
1774159272914847200,17.83284716796875,0.14642378687858582,-0.4592514634132385,-0.29314690828323364
1774159272934840000,17.852840087890623,0.14752714335918427,-0.7913804054260254,-0.27818527817726135
1774159272954833200,17.872833251953125,0.1457982212305069,-0.7720320224761963,-0.39470016956329346
1774159272974827000,17.892826904296875,0.1811484843492508,-0.5312921404838562,-0.2620529234409332
1774159272994820000,17.912820068359373,0.006903712637722492,-0.7588850855827332,0.06109238415956497
1774159273014813200,17.932813232421875,-0.09545568376779556,-0.9003817439079285,0.26881706714630127
1774159273034806000,17.952805908203125,-0.1416199803352356,-1.1195875406265259,0.19645845890045166
1774159273054799000,17.972799072265627,-0.24232742190361023,-1.4888564348220825,0.10285075008869171
1774159273074793200,17.992793212890625,-0.17746612429618835,-1.3149006366729736,0.11037071794271469
1774159273094786000,18.0127861328125,-0.20047077536582947,-0.928807258605957,0.1964174509048462
1774159273114779000,18.03277880859375,-0.11839988082647324,-0.6747866868972778,0.16563530266284943
1774159273134772000,18.05277197265625,0.0008889631717465818,-0.7097968459129333,-0.027935227379202843
1774159273154765000,18.07276513671875,0.050888482481241226,-0.8993502855300903,-0.15529504418373108
1774159273174759200,18.09275927734375,0.004447212442755699,-0.8675563931465149,-0.10908893495798111
1774159273194752000,18.112751953125,-0.15410861372947693,-0.6295278668403625,0.0022572954185307026
1774159273214745000,18.1327451171875,-0.3594473898410797,-0.39730343222618103,0.05818101391196251
1774159273234738200,18.15273828125,-0.5118649005889893,-0.18675896525382996,-0.0005422196118161082
1774159273254731300,18.172731201171874,-0.5534522533416748,0.10862608253955841,-0.03952690213918686
1774159273274724900,18.192724853515625,-0.4484001696109772,0.20219731330871582,-0.047023434191942215
1774159273294718000,18.212718017578126,-0.3383338451385498,-0.0229327455163002,0.008813731372356415
1774159273314711000,18.2327109375,-0.3671167492866516,-0.1311391144990921,0.09283806383609772
1774159273334704000,18.2527041015625,-0.46711233258247375,-0.021262144669890404,0.10722286254167557
1774159273354697000,18.272697021484376,-0.5001952052116394,0.042520828545093536,0.04988207295536995
1774159273374691000,18.292691162109374,-0.4616621732711792,0.1171732246875763,0.09634624421596527
1774159273394684200,18.31268408203125,-0.4309828281402588,-0.05606380105018616,0.09576061367988586
1774159273414677200,18.33267724609375,-0.37553659081459045,-0.08027353137731552,-0.0672014057636261
1774159273434670000,18.352670166015624,-0.3073436915874481,0.15675179660320282,-0.1884111911058426
1774159273454663000,18.372662841796874,-0.2823813557624817,0.20721043646335602,-0.18945755064487457
1774159273474657000,18.392656982421876,-0.27411144971847534,0.114728182554245,-0.011224690824747086
1774159273494650000,18.412650146484374,-0.2470819652080536,-0.0775829404592514,0.0402667298913002
1774159273514643200,18.432643310546876,-0.054971374571323395,0.01641732268035412,-0.06154458597302437
1774159273534636000,18.452635986328126,0.1991940587759018,0.7847230434417725,-0.1961735039949417
1774159273554629000,18.472629150390624,0.35444357991218567,0.943678617477417,-0.5253170132637024
1774159273574623200,18.492623291015626,0.44969552755355835,1.0262651443481445,-0.7324787378311157
1774159273594616000,18.512615966796876,0.6073676943778992,0.9378715753555298,-0.5826216340065002
1774159273614609000,18.53260888671875,0.6011838316917419,0.6166530847549438,-0.2306918054819107
1774159273634602000,18.55260205078125,0.48559972643852234,1.0157318115234375,-0.05967850983142853
1774159273654595000,18.572594970703125,0.44879618287086487,1.7565603256225586,-0.2220514416694641
1774159273674589200,18.592589111328124,0.41737034916877747,1.9520584344863892,-0.31715238094329834
1774159273694582000,18.61258203125,0.43613043427467346,1.4936892986297607,-0.002208026824519038
1774159273714575000,18.6325751953125,0.3931749761104584,1.006653070449829,0.41276758909225464
1774159273734567400,18.6525673828125,0.2825842797756195,0.9770663976669312,0.41393032670021057
1774159273754560500,18.672560546875,0.05220940709114075,1.1227694749832153,0.046854857355356216
1774159273774554400,18.692554443359374,-0.09184762835502625,1.3631852865219116,-0.09090567380189896
1774159273794547500,18.71254736328125,-0.02624252252280712,1.5250154733657837,0.11904383450746536
1774159273814540300,18.732540283203125,0.026704048737883568,1.3827401399612427,0.3288276791572571
1774159273834533400,18.752533447265623,0.09055440127849579,1.049019455909729,0.38177451491355896
1774159273854526500,18.7725263671875,0.14239203929901123,0.832197368144989,0.3034112751483917
1774159273874520600,18.7925205078125,0.18607400357723236,0.7342033982276917,0.19017499685287476
1774159273894513400,18.812513427734373,0.2032167613506317,0.6137496829032898,0.15889669954776764
1774159273914506500,18.832506591796875,0.21124939620494843,0.4727419912815094,0.11157339811325073
1774159273934499600,18.85249951171875,0.21333464980125427,0.3254225552082062,0.00944782979786396
1774159273954492700,18.87249267578125,0.21538794040679932,0.2659826874732971,-0.06580298393964767
1774159273974486300,18.892486328125,0.20670923590660095,0.3598244786262512,-0.09664531797170639
1774159273994479400,18.912479248046875,0.17780888080596924,0.44881853461265564,-0.14371082186698914
1774159274014472400,18.932472412109377,0.13298681378364563,0.344302773475647,-0.18183477222919464
1774159274034465500,18.952465576171875,0.07043422013521194,0.1422964185476303,-0.2401076704263687
1774159274054458400,18.972458251953125,-0.008817194029688835,-0.06061061471700668,-0.21814937889575958
1774159274074452500,18.992452392578127,-0.01937609538435936,-0.1365053802728653,-0.18806657195091248
1774159274094445600,19.012445556640625,0.08238302171230316,-0.21815869212150574,-0.4190063178539276
1774159274114438700,19.032438720703126,0.1413041353225708,-0.6495404839515686,-0.8203740119934082
1774159274134431500,19.052431396484376,0.061647385358810425,-1.3603264093399048,-1.0695278644561768
1774159274154424300,19.07242431640625,0.10613974928855896,-1.5497562885284424,-0.8503265380859375
1774159274174418400,19.09241845703125,0.3438050448894501,-1.1181707382202148,-0.32134580612182617
1774159274194411500,19.11241162109375,0.3414079248905182,-1.0456668138504028,-0.2159743756055832
1774159274214404400,19.132404296875,0.2487083524465561,-1.1512261629104614,-0.4082556664943695
1774159274234397400,19.1523974609375,0.1378239095211029,-1.206441044807434,-0.5367166996002197
1774159274254390500,19.172390625,-0.036556679755449295,-1.2271342277526855,-0.05000218003988266
1774159274274384400,19.19238427734375,-0.21030449867248535,-1.2282637357711792,0.5811606049537659
1774159274294377500,19.21237744140625,-0.2756986916065216,-0.7466795444488525,0.8717721700668335
1774159274314370300,19.232370361328126,-0.34109342098236084,-0.2529006898403168,0.8538967967033386
1774159274334363400,19.25236328125,-0.3590700030326843,-0.05080139636993408,0.6053096055984497
1774159274354357500,19.272357421875,-0.38922151923179626,0.033008016645908356,0.28569939732551575
1774159274374350600,19.2923505859375,-0.4477500915527344,0.06847333163022995,0.06961636245250702
1774159274394343400,19.312343505859374,-0.37614113092422485,0.17844563722610474,-0.018449846655130386
1774159274414336500,19.33233642578125,-0.11806724965572357,-0.18349339067935944,-0.1371930092573166
1774159274434329600,19.35232958984375,-0.03267618641257286,-0.6898082494735718,-0.2758137285709381
1774159274454323500,19.372323486328124,-0.009003615006804466,-0.9329380989074707,-0.3354107439517975
1774159274474316300,19.39231640625,-0.047096140682697296,-0.7251891493797302,-0.27590587735176086
1774159274494309400,19.412309326171876,-0.19202668964862823,-0.25064313411712646,-0.13634265959262848
1774159274514302500,19.432302490234374,-0.38272687792778015,0.07524015754461288,-0.07906711846590042
1774159274534295600,19.452295654296876,-0.5167296528816223,0.15078657865524292,-0.05949448421597481
1774159274554289400,19.472289306640626,-0.5474370121955872,0.0494152195751667,-0.03654363006353378
1774159274574282500,19.492282470703124,-0.5661616921424866,0.03899427130818367,-0.029763221740722656
1774159274594275600,19.512275634765626,-0.5840394496917725,0.027409786358475685,-0.04785167798399925
1774159274614268400,19.532268310546876,-0.5099881291389465,0.0770907923579216,-0.12005157023668289
1774159274634261200,19.55226123046875,-0.3354685604572296,0.092453233897686,-0.22430527210235596
1774159274654255400,19.57225537109375,-0.2619325518608093,-0.08836741000413895,-0.3843412697315216
1774159274674248400,19.59224853515625,-0.21020543575286865,0.24300439655780792,-0.4267111122608185
1774159274694241500,19.612241455078124,-0.17356406152248383,0.3098486661911011,-0.3696361184120178
1774159274714234400,19.632234375,-0.14212970435619354,0.08017420023679733,-0.21253836154937744
1774159274734229200,19.652229248046876,0.030227944254875183,-0.13697676360607147,-0.09568391740322113
1774159274754222300,19.672222412109374,0.19630026817321777,0.22340671718120575,-0.257848858833313
1774159274774215400,19.69221533203125,0.23979155719280243,1.1386688947677612,-0.5331714749336243
1774159274794208300,19.712208251953125,0.1102663204073906,1.408426284790039,-0.5081987977027893
1774159274814201300,19.732201416015624,-0.018663965165615082,1.5457905530929565,-0.415208101272583
1774159274834195500,19.752195556640626,-0.09307188540697098,1.70331871509552,-0.3203071653842926
1774159274854188500,19.7721884765625,-0.11112332344055176,1.7534795999526978,-0.16851657629013062
1774159274874181400,19.792181396484374,-0.059360262006521225,1.670142650604248,0.027602866291999817
1774159274894174500,19.812174560546875,-0.0377950482070446,1.594190001487732,0.2080560028553009
1774159274914168300,19.832168212890625,-0.07403907179832458,1.5343706607818604,0.24889637529850006
1774159274934161400,19.852161376953124,-0.23311474919319153,1.2867329120635986,0.051834966987371445
1774159274954154200,19.872154296875,-0.35242754220962524,1.5857635736465454,-0.023455791175365448
1774159274974147300,19.892147216796875,-0.37380048632621765,1.8582286834716797,0.03871144354343414
1774159274994140400,19.912140380859373,-0.349457323551178,1.805629014968872,0.1495380848646164
1774159275014134500,19.932134521484375,-0.28648048639297485,1.8153985738754272,0.24523532390594482
1774159275034127400,19.95212744140625,-0.13424596190452576,1.7329928874969482,0.27209144830703735
1774159275054120200,19.9721201171875,0.006847519893199205,1.365313172340393,0.2677006721496582
1774159275074113300,19.99211328125,0.09703519940376282,0.6765648722648621,0.2716405689716339
1774159275094107400,20.012107421875,0.17591030895709991,0.05194256082177162,0.217092365026474
1774159275114100500,20.0321005859375,0.21507662534713745,-0.05783453583717346,0.045398641377687454
1774159275134093300,20.05209326171875,0.22730612754821777,0.1622387021780014,-0.07174555957317352
1774159275154086400,20.07208642578125,0.29402977228164673,0.42641282081604004,-0.10588488727807999
1774159275174079500,20.09207958984375,0.32348164916038513,0.4925095736980438,-0.1995173692703247
1774159275194073300,20.1120732421875,0.369032621383667,0.5190069675445557,-0.2025802731513977
1774159275214066200,20.132066162109375,0.38188663125038147,0.3536853790283203,-0.11182932555675507
1774159275234059300,20.152059326171877,0.3889685273170471,0.10695946961641312,-0.041561026126146317
1774159275254052400,20.17205224609375,0.34317654371261597,-0.3291552662849426,-0.20704053342342377
1774159275274046500,20.19204638671875,0.18680717051029205,-0.899977445602417,-0.41253671050071716
1774159275294039300,20.212039306640627,0.03825737535953522,-1.1937153339385986,-0.2707987427711487
1774159275314032400,20.232032470703125,-0.023667778819799423,-1.2233000993728638,-0.21580153703689575
1774159275334025500,20.252025390625,0.2995526194572449,-0.22929124534130096,0.14259709417819977
1774159275354018600,20.2720185546875,0.26108938455581665,-0.39231184124946594,0.5448082089424133
1774159275374012400,20.292012451171875,0.33277183771133423,-0.6321297883987427,0.6915579438209534
1774159275394005200,20.312005126953125,0.35626623034477234,-1.085644006729126,0.46124058961868286
1774159275413998300,20.331998291015626,0.4815487861633301,-1.5915268659591675,0.2182455211877823
1774159275433991400,20.351991455078124,0.5587535500526428,-1.4890388250350952,0.30380889773368835
1774159275453985500,20.371985595703126,0.6464841961860657,-1.1232779026031494,0.40836140513420105
1774159275473978400,20.391978271484376,0.7795615792274475,-1.0650314092636108,0.3153877854347229
1774159275493971500,20.411971435546874,0.8232430219650269,-1.2892128229141235,0.23020870983600616
1774159275513964300,20.43196435546875,0.6939678192138672,-1.4416897296905518,0.16867290437221527
1774159275533958400,20.45195849609375,0.44173505902290344,-1.3209657669067383,0.25205034017562866
1774159275553951200,20.471951171875,0.2591170370578766,-1.1473805904388428,0.35334154963493347
1774159275573944300,20.4919443359375,0.19609227776527405,-1.0170713663101196,0.34231820702552795
1774159275593937400,20.5119375,0.1774086058139801,-1.0289080142974854,0.28568899631500244
1774159275613930500,20.531930419921874,0.17072993516921997,-1.0402448177337646,0.2460435926914215
1774159275633924600,20.551924560546876,0.15018977224826813,-0.972975492477417,0.20725411176681519
1774159275653917400,20.57191748046875,0.08862201124429703,-0.904089093208313,0.14534388482570648
1774159275673910300,20.59191015625,0.005876265000551939,-0.8557194471359253,0.06980890780687332
1774159275693903400,20.6119033203125,-0.07487903535366058,-0.6996129751205444,-0.01074026245623827
1774159275713897500,20.6318974609375,-0.1384207308292389,-0.7163050770759583,-0.00908350944519043
1774159275733889000,20.651888916015626,-0.1680459976196289,-0.6684728860855103,-0.014397314749658108
1774159275753882000,20.671882080078124,-0.15541675686836243,-0.5831113457679749,-0.00031372037483379245
1774159275773875200,20.691875244140626,-0.10149173438549042,-0.5063087344169617,-0.006579339504241943
1774159275793869300,20.711869384765624,-0.022762304171919823,-0.5771783590316772,-0.08345414698123932
1774159275813862100,20.731862060546874,0.10785296559333801,-0.5501062870025635,-0.19752639532089233
1774159275833855200,20.751855224609375,0.2749306261539459,-0.37343403697013855,-0.3160381317138672
1774159275853848300,20.771848388671874,0.323078989982605,-0.27443742752075195,-0.4181807339191437
1774159275873842200,20.79184228515625,0.16917650401592255,-0.4042055308818817,-0.30163466930389404
1774159275893835300,20.811835205078125,0.13214844465255737,-0.10831741988658905,-0.1462501585483551
1774159275913828000,20.831828125,-0.0038032603915780783,0.4181506335735321,-0.08423951268196106
1774159275933821200,20.8518212890625,-0.1198425143957138,0.6213666200637817,-0.037094105035066605
1774159275953815300,20.871815185546875,-0.30715593695640564,0.7581399083137512,-0.0626780316233635
1774159275973808400,20.891808349609374,-0.49910062551498413,0.8824946284294128,-0.03734976798295975
1774159275993801200,20.91180126953125,-0.5586150884628296,1.059488296508789,0.06819822639226913
1774159276013794300,20.931794189453125,-0.6002740859985352,1.2798627614974976,0.08943533897399902
1774159276033788200,20.9517880859375,-0.6355295777320862,1.4910393953323364,0.04896807670593262
1774159276053781200,20.97178125,-0.6412510871887207,1.7608957290649414,-0.019641611725091934
1774159276073774000,20.991774169921875,-0.5699015259742737,2.025751829147339,-0.057255566120147705
1774159276093767200,21.01176708984375,-0.4688417911529541,2.007132053375244,-0.006110356654971838
1774159276113761300,21.03176123046875,-0.3749786615371704,1.7352635860443115,0.039616119116544724
1774159276133754400,21.05175439453125,-0.2681363821029663,1.3326964378356934,0.009068329818546772
1774159276153747200,21.071747314453123,-0.11292602121829987,0.9844114184379578,-0.07623831182718277
1774159276173740000,21.091739990234377,-0.015902267768979073,0.6797393560409546,-0.10795842111110687
1774159276193733000,21.111733154296875,-0.0016527577536180615,0.41436922550201416,-0.04475255683064461
1774159276213727200,21.131727294921873,-0.0649382546544075,0.2754589915275574,0.07548516988754272
1774159276233720300,21.15172021484375,-0.13476847112178802,0.3324602246284485,0.11582992970943451
1774159276253713200,21.171713134765625,-0.22218886017799377,0.7051360607147217,0.03602990508079529
1774159276273706200,21.191706298828127,-0.26104864478111267,0.8753397464752197,-0.12328651547431946
1774159276293700000,21.2117001953125,-0.2492694854736328,0.6603105664253235,-0.28828319907188416
1774159276313693200,21.231693115234375,-0.2258445769548416,0.6298437118530273,-0.24675625562667847
1774159276333686000,21.25168603515625,-0.17312917113304138,0.5506168007850647,-0.005372394807636738
1774159276353679000,21.27167919921875,-0.20155549049377441,0.07816164940595627,0.2554725110530853
1774159276373673200,21.291673095703125,-0.2844647467136383,-0.3894771933555603,0.12353205680847168
1774159276393666300,21.311666259765627,-0.286465585231781,-0.01955133117735386,-0.2762472927570343
1774159276413659100,21.3316591796875,-0.19695806503295898,0.3094526529312134,-0.5582784414291382
1774159276433652200,21.35165234375,-0.07557784765958786,0.4856013357639313,-0.3952498435974121
1774159276453646000,21.37164599609375,-0.0789608582854271,0.24740900099277496,-0.31198903918266296
1774159276473639200,21.39163916015625,0.018919628113508224,-0.35742178559303284,-0.26425907015800476
1774159276493632300,21.41163232421875,0.2608225345611572,-1.2077845335006714,-0.0699644386768341
1774159276513625000,21.431625,0.42189478874206543,-1.7048017978668213,0.2597234547138214
1774159276533619200,21.451619140625,0.23389238119125366,-1.2715864181518555,0.3906194269657135
1774159276553612300,21.4716123046875,0.2029390037059784,-1.2485333681106567,-0.20933350920677185
1774159276573605400,21.49160546875,0.3577701151371002,-0.8585399985313416,-0.46425342559814453
1774159276593599200,21.51159912109375,0.4251510202884674,-0.33772584795951843,-0.15786339342594147
1774159276613592000,21.531592041015625,0.3793894052505493,-0.5798601508140564,0.013427658006548882
1774159276633585200,21.551585205078126,0.22462032735347748,-0.5864530801773071,0.1645524650812149
1774159276653578200,21.571578125,0.09872391074895859,-0.3771853744983673,0.2590704560279846
1774159276673572400,21.591572265625,0.02190982550382614,-0.27296894788742065,0.26723623275756836
1774159276693565200,21.611565185546876,-0.02202806994318962,-0.26055383682250977,0.2142217457294464
1774159276713558300,21.631558349609374,-0.02425527200102806,-0.2790771722793579,0.15461941063404083
1774159276733552000,21.65155224609375,-0.04014955088496208,-0.24920690059661865,0.14505918323993683
1774159276753546200,21.671546142578126,-0.06496594846248627,-0.17873938381671906,0.1339021474123001
1774159276773539300,21.691539306640625,-0.10008106380701065,-0.11699532717466354,0.07430778443813324
1774159276793532200,21.7115322265625,-0.062243666499853134,-0.058579422533512115,0.06617262959480286
1774159276813525200,21.731525146484376,0.01728018745779991,-0.101960189640522,0.14348766207695007
1774159276833519000,21.75151904296875,0.11893757432699203,-0.06454890221357346,0.13911926746368408
1774159276853512200,21.77151220703125,0.23432807624340057,0.12961392104625702,0.19783584773540497
1774159276873505300,21.79150537109375,0.3418273627758026,0.22843796014785767,0.23230035603046417
1774159276893498000,21.811498046875,0.4728807210922241,0.11997993290424347,0.21083314716815948
1774159276913492200,21.8314921875,0.5380021929740906,0.05892856419086456,0.20409508049488068
1774159276933485300,21.8514853515625,0.5188205242156982,0.47351375222206116,0.10749716311693192
1774159276953478400,21.871478515625,0.5644327402114868,1.00301992893219,0.049433328211307526
1774159276973471200,21.89147119140625,0.5136572122573853,0.9320933222770691,0.0007291734800674021
1774159276993465000,21.911465087890626,0.4965101480484009,0.832790195941925,-0.1756674349308014
1774159277013458200,21.931458251953124,0.33998820185661316,1.2454067468643188,-0.5133053660392761
1774159277033451300,21.951451171875,0.27157533168792725,1.5273146629333496,-0.6240465641021729
1774159277053445400,21.9714453125,0.3022000789642334,1.267871379852295,-0.30082881450653076
1774159277073438200,21.991438232421874,0.2460411936044693,0.7471354603767395,0.2905213236808777
1774159277093431300,22.011431396484376,0.031675636768341064,0.6771894097328186,0.6187354326248169
1774159277113424400,22.03142431640625,-0.19499878585338593,1.1196386814117432,0.5759035348892212
1774159277133418200,22.051418212890624,-0.3273080885410309,1.392899513244629,0.3233815133571625
1774159277153411000,22.0714111328125,-0.43385049700737,1.3567585945129395,0.10976245254278183
1774159277173404200,22.091404052734376,-0.4929620325565338,1.3288151025772095,0.10567742586135864
1774159277193397200,22.111397216796874,-0.48727086186408997,1.326080322265625,0.15276052057743073
1774159277213391400,22.131391357421876,-0.4535411298274994,1.1012964248657227,0.14502190053462982
1774159277233384200,22.15138427734375,-0.47664564847946167,0.9484032988548279,0.11411352455615997
1774159277253377300,22.171377197265624,-0.5486886501312256,0.9030347466468811,0.248079314827919
1774159277273370400,22.191370361328126,-0.6547285318374634,1.0918006896972656,0.20815213024616241
1774159277293364200,22.2113642578125,-0.6866580247879028,1.275880217552185,0.04917500168085098
1774159277313357300,22.231357421875,-0.6085551977157593,1.0923434495925903,-0.040472324937582016
1774159277333350100,22.25135009765625,-0.5564715266227722,0.6414154171943665,-0.1420373022556305
1774159277353344300,22.27134423828125,-0.5010998249053955,0.3117610812187195,-0.20832523703575134
1774159277373337300,22.29133740234375,-0.47753646969795227,0.49709179997444153,-0.2305506467819214
1774159277393330400,22.311330322265626,-0.4533163607120514,0.8624495267868042,-0.30424192547798157
1774159277413323300,22.3313232421875,-0.32327258586883545,1.1910862922668457,-0.391927033662796
1774159277433317000,22.351317138671874,-0.12730282545089722,1.321740746498108,-0.4989112615585327
1774159277453310200,22.371310302734376,-0.057207897305488586,0.8241945505142212,-0.46457618474960327
1774159277473303300,22.39130322265625,0.010420682840049267,-0.22588159143924713,-0.23978357017040253
1774159277493296000,22.411296142578124,-0.013814881443977356,-1.0003153085708618,-0.19772666692733765
1774159277513290200,22.431290283203126,-0.20382316410541534,-0.9081395268440247,-0.44376254081726074
1774159277533283300,22.451283447265624,-0.29673367738723755,-0.6289353370666504,-0.547674834728241
1774159277553276400,22.4712763671875,-0.27122962474823,-1.0078506469726562,-0.3864544928073883
1774159277573270300,22.491270263671876,-0.15220871567726135,-1.5796284675598145,-0.10492268949747086
1774159277593263000,22.51126318359375,0.001490304945036769,-1.646618127822876,0.20715078711509705
1774159277613256200,22.531256103515624,0.033842917531728745,-1.1630120277404785,0.4136251211166382
1774159277633249300,22.551249267578125,-0.08660147339105606,-0.9324530959129333,0.2504231631755829
1774159277653243400,22.571243408203124,-0.10906869918107986,-0.7848929762840271,0.03756175562739372
1774159277673236200,22.591236328125,0.007758320774883032,-0.8123389482498169,-0.08631891012191772
1774159277693229300,22.611229248046875,0.025592977181077003,-1.085585117340088,-0.11999005079269409
1774159277713222100,22.63122216796875,0.001948634977452457,-1.0967581272125244,-0.01624182052910328
1774159277733215200,22.65121533203125,-0.03989361971616745,-0.8735999464988708,0.126270592212677
1774159277753208300,22.671208251953125,-0.04951189085841179,-0.7480776906013489,0.2331688106060028
1774159277773201400,22.691201416015623,-0.02606142871081829,-0.7346329689025879,0.3184394836425781
1774159277793195500,22.711195556640625,-0.006641391199082136,-0.8193758130073547,0.36633431911468506
1774159277813188600,22.731188720703123,0.02358575351536274,-0.8767744302749634,0.36201226711273193
1774159277833181400,22.751181396484377,0.04111760854721069,-0.8103956580162048,0.3224741816520691
1774159277853174500,22.771174560546875,0.04361991584300995,-0.6846941709518433,0.2669254243373871
1774159277873168400,22.79116845703125,0.02707183174788952,-0.6017971634864807,0.24255111813545227
1774159277893161500,22.811161376953127,-0.039813458919525146,-0.581748366355896,0.2716030180454254
1774159277913154300,22.831154296875,-0.07045765221118927,-0.5686642527580261,0.30846649408340454
1774159277933148400,22.8511484375,-0.030473753809928894,-0.6135212182998657,0.28466394543647766
1774159277953141500,22.8711416015625,0.07137591391801834,-0.6240382790565491,0.19938448071479797
1774159277973134600,22.891134521484375,0.22416013479232788,-0.5519808530807495,0.16527684032917023
1774159277993127400,22.91112744140625,0.34800031781196594,-0.5141575932502747,0.13422997295856476
1774159278013121300,22.931121337890627,0.4101582169532776,-0.4049474895000458,0.12237571179866791
1774159278033114400,22.9511142578125,0.39674443006515503,-0.21972064673900604,0.15283988416194916
1774159278053107500,22.971107421875,0.332638144493103,-0.21538767218589783,0.24415114521980286
1774159278073101600,22.9911015625,0.36030757427215576,-0.4893673062324524,0.2572008967399597
1774159278093094400,23.011094482421875,0.4681174159049988,-0.7265090346336365,0.1607297658920288
1774159278113087500,23.03108740234375,0.6724694967269897,-0.5541361570358276,-0.05849899724125862
1774159278133080600,23.05108056640625,0.855437695980072,-0.30403977632522583,-0.20226041972637177
1774159278153074400,23.071074462890625,0.8749527931213379,-0.34378960728645325,-0.28524452447891235
1774159278173067300,23.0910673828125,0.7578021883964539,-0.19021601974964142,-0.32242250442504883
1774159278193060400,23.111060302734376,0.6048936247825623,-0.3699841797351837,-0.3139297068119049
1774159278213054500,23.131054443359375,0.3689152002334595,-0.10493174195289612,-0.271338552236557
1774159278233047600,23.151047607421877,0.2120525985956192,0.6155158877372742,-0.1891361027956009
1774159278253040600,23.17104052734375,0.1370430737733841,0.9646177291870117,-0.06926615536212921
1774159278273033500,23.191033447265625,0.16985560953617096,0.9695805311203003,0.06590045243501663
1774159278293027300,23.21102734375,0.2755626142024994,0.949877142906189,0.17582190036773682
1774159278313020400,23.2310205078125,0.33034250140190125,0.709810197353363,0.2672783136367798
1774159278333013500,23.251013427734375,0.26830920577049255,0.49712109565734863,0.24574291706085205
1774159278353007600,23.271007568359376,0.1161617562174797,0.48631399869918823,0.1233387142419815
1774159278373000400,23.29100048828125,-0.07648518681526184,0.5818929672241211,-0.03195899724960327
1774159278392993500,23.31099365234375,-0.12638244032859802,0.7049123644828796,-0.16173243522644043
1774159278412986600,23.330986572265626,-0.10596904158592224,0.7661362886428833,-0.08326985687017441
1774159278432980500,23.35098046875,-0.11986115574836731,0.5934380292892456,0.04253041744232178
1774159278452973300,23.370973388671874,-0.15837019681930542,0.400035560131073,0.0918004959821701
1774159278472966400,23.39096630859375,-0.22350499033927917,0.3084510564804077,0.11480008810758591
1774159278492960500,23.41096044921875,-0.3011113703250885,0.3096816837787628,0.1353817880153656
1774159278512953600,23.43095361328125,-0.3342647850513458,0.37365108728408813,0.12486949563026428
1774159278532946400,23.450946533203126,-0.27081099152565,0.448265939950943,0.07330803573131561
1774159278552939500,23.470939453125,-0.11485334485769272,0.47580036520957947,-0.013645238243043423
1774159278572933400,23.490933349609374,-0.07509448379278183,0.5690738558769226,-0.08979007601737976
1774159278592926500,23.510926513671876,-0.07532618194818497,0.3442878723144531,-0.05421982705593109
1774159278612919600,23.53091943359375,-0.09165135771036148,0.322931706905365,0.019522035494446754
1774159278632913400,23.550913330078124,-0.10958029329776764,0.16862550377845764,0.20691829919815063
1774159278652906500,23.570906494140626,-0.15156368911266327,-0.043419379740953445,0.2189435362815857
1774159278672899600,23.590899658203124,-0.22834981977939606,-0.25133609771728516,-0.024955151602625847
1774159278692893400,23.6108935546875,-0.22150123119354248,-0.44144344329833984,-0.3114204704761505
1774159278712886300,23.63088623046875,-0.20669032633304596,-0.27230289578437805,-0.5376362800598145
1774159278732880000,23.6508798828125,-0.24833257496356964,-0.2460869997739792,-0.46524277329444885
1774159278752873000,23.670873046875,-0.2828950881958008,-0.48827967047691345,-0.3397354483604431
1774159278772867000,23.6908671875,-0.20549163222312927,-0.7587305903434753,-0.12544474005699158
1774159278792860000,23.71085986328125,-0.13521933555603027,-1.219306230545044,0.1205676943063736
1774159278812852700,23.730852783203126,-0.17250865697860718,-1.4073538780212402,0.40887778997421265
1774159278832846800,23.750846923828124,-0.2798076868057251,-1.291770577430725,0.5667483806610107
1774159278852840000,23.77083984375,-0.21846230328083038,-1.2116384506225586,0.5774457454681396
1774159278872833000,23.7908330078125,-0.20030567049980164,-1.1541247367858887,0.4567728638648987
1774159278892825900,23.810825927734374,-0.21795150637626648,-0.9428032040596008,0.3602127730846405
1774159278912820000,23.830820068359376,-0.05323685705661774,-0.6885262131690979,0.18569929897785187
1774159278932813000,23.85081298828125,0.044675592333078384,-0.7398695349693298,-0.0166772473603487
1774159278952806000,23.870805908203124,0.05969288945198059,-1.0236533880233765,-0.04105662181973457
1774159278972800000,23.890800048828126,0.09661202877759933,-1.223852515220642,0.143232524394989
1774159278992792800,23.910792724609376,0.10110398381948471,-1.2564409971237183,0.3631579577922821
1774159279012786000,23.930785888671874,0.13179291784763336,-1.1728620529174805,0.4216154217720032
1774159279032780000,23.950780029296876,0.11574790626764297,-1.1138455867767334,0.47923263907432556
1774159279052773000,23.970773193359374,0.09902964532375336,-1.0940390825271606,0.55440753698349
1774159279072766000,23.990765869140624,0.06161516159772873,-1.063973069190979,0.5765677094459534
1774159279092758800,24.0107587890625,0.046239402145147324,-1.0383321046829224,0.5326841473579407
1774159279112753000,24.0307529296875,0.0630950778722763,-0.945398211479187,0.3756159543991089
1774159279132746000,24.05074609375,0.09512758255004883,-0.477597713470459,0.2574882507324219
1774159279152739000,24.070739013671876,0.09954709559679031,-0.3440074324607849,0.2186093032360077
1774159279172733200,24.090733154296874,0.08456148952245712,-0.42471107840538025,0.24373862147331238
1774159279192726000,24.11072607421875,0.07939282804727554,-0.3746926486492157,0.347846120595932
1774159279212718800,24.13071875,0.1331372857093811,-0.18873316049575806,0.3631656765937805
1774159279232712000,24.1507119140625,0.2940063178539276,-0.1913585066795349,0.1965000033378601
1774159279252706000,24.1707060546875,0.5440635681152344,-0.39038825035095215,0.01944107562303543
1774159279272699000,24.190698974609376,0.6628549098968506,-0.5987308025360107,-0.07637439668178558
1774159279292692000,24.21069189453125,0.7264261841773987,-0.5745530128479004,-0.17869730293750763
1774159279312686000,24.23068603515625,0.7972119450569153,-0.37050509452819824,-0.35848066210746765
1774159279332679000,24.250678955078126,0.7355115413665771,-0.2704714238643646,-0.4302121102809906
1774159279352671700,24.270671630859376,0.6911534070968628,-0.327414333820343,-0.31939423084259033
1774159279372665900,24.290665771484374,0.5179568529129028,-0.6201673746109009,-0.13592827320098877
1774159279392659000,24.310658935546876,0.17497314512729645,-0.8433666229248047,0.11938391625881195
1774159279412652000,24.330652099609374,-0.022124743089079857,0.14541977643966675,0.171924889087677
1774159279432644900,24.350644775390624,-0.1358577013015747,1.47538161277771,-0.1338278353214264
1774159279452639000,24.370638916015626,-0.2097223401069641,2.0969135761260986,-0.3392654061317444
1774159279472631800,24.3906318359375,-0.06160823628306389,1.8365017175674438,-0.014067881740629673
1774159279492625000,24.410625,0.10091675817966461,1.1269145011901855,0.619559645652771
1774159279512619000,24.430618896484376,0.10869638621807098,0.7365763187408447,0.8542219400405884
1774159279532611800,24.45061181640625,0.0015092133544385433,0.48836249113082886,0.6926104426383972
1774159279552605000,24.47060498046875,-0.08559266477823257,0.57411789894104,0.39666399359703064
1774159279572599000,24.49059912109375,-0.1588226705789566,0.9224452376365662,0.17587915062904358
1774159279592592100,24.510592041015624,-0.11460993438959122,1.1691977977752686,0.2220945805311203
1774159279612585000,24.5305849609375,-0.027244137600064278,1.2601596117019653,0.3260236382484436
1774159279632578800,24.550578857421876,0.059901416301727295,1.2926547527313232,0.3812919557094574
1774159279652572000,24.570572021484374,0.13929611444473267,1.2422524690628052,0.480285108089447
1774159279672565000,24.59056494140625,0.2402200549840927,1.1103222370147705,0.5607154965400696
