time,seconds_elapsed,z,y,x
1774159848553245200,0.0562451171875,-1.0610198974609375,-0.297027587890625,-0.005523681640625
1774159848573236200,0.076236328125,-1.0090789794921875,-0.33441162109375,0.020660400390625
1774159848593226500,0.0962265625,-1.0153350830078125,-0.386505126953125,0.007568359375
1774159848613217300,0.11621728515625,-1.040802001953125,-0.3460845947265625,-0.039215087890625
1774159848633207300,0.136207275390625,-1.087371826171875,-0.368682861328125,-0.05438232421875
1774159848653198300,0.1561982421875,-0.916290283203125,-0.343536376953125,-0.101287841796875
1774159848673189400,0.176189453125,-0.8242950439453125,-0.3436126708984375,-0.054901123046875
1774159848693179400,0.196179443359375,-0.85528564453125,-0.3132781982421875,-0.100738525390625
1774159848713170200,0.216170166015625,-0.941375732421875,-0.195159912109375,-0.1694793701171875
1774159848733160200,0.23616015625,-0.96759033203125,-0.501007080078125,-0.267974853515625
1774159848753150500,0.256150390625,-0.8182830810546875,-0.714019775390625,-0.157684326171875
1774159848773141500,0.2761416015625,-0.5521087646484375,-0.7599639892578125,-0.0651702880859375
1774159848793132300,0.29613232421875,-0.473114013671875,-0.6723480224609375,-0.0062713623046875
1774159848813122300,0.316122314453125,-0.7152099609375,-0.433441162109375,-0.1892852783203125
1774159848833113300,0.33611328125,-0.9170379638671875,-0.41912841796875,-0.3046112060546875
1774159848853103400,0.356103271484375,-0.854705810546875,-0.52001953125,-0.2423095703125
1774159848873093400,0.37609326171875,-0.8500823974609375,-0.482635498046875,-0.17486572265625
1774159848893084200,0.396084228515625,-0.871978759765625,-0.3969879150390625,-0.1752166748046875
1774159848913075500,0.416075439453125,-0.9308929443359375,-0.4525909423828125,-0.22222900390625
1774159848933065500,0.4360654296875,-0.9524993896484375,-0.4608917236328125,-0.287506103515625
1774159848953056300,0.45605615234375,-0.9279022216796875,-0.4906158447265625,-0.250640869140625
1774159848973046300,0.47604638671875,-0.842193603515625,-0.4660186767578125,-0.223846435546875
1774159848993036300,0.496036376953125,-0.8105621337890625,-0.4962005615234375,-0.2346954345703125
1774159849013027300,0.51602734375,-0.803741455078125,-0.520599365234375,-0.2850341796875
1774159849033017300,0.536017333984375,-0.8385009765625,-0.5255584716796875,-0.32470703125
1774159849053008400,0.55600830078125,-0.7928009033203125,-0.5496063232421875,-0.30340576171875
1774159849072998400,0.575998291015625,-0.7970428466796875,-0.53009033203125,-0.2844696044921875
1774159849092989400,0.595989501953125,-0.8124847412109375,-0.4909820556640625,-0.294708251953125
1774159849112979500,0.6159794921875,-0.8035736083984375,-0.5124053955078125,-0.3044891357421875
1774159849132970200,0.63597021484375,-0.75244140625,-0.5649871826171875,-0.2964935302734375
1774159849152960300,0.655960205078125,-0.79498291015625,-0.5565032958984375,-0.291259765625
1774159849172951600,0.67595166015625,-0.8639678955078125,-0.49188232421875,-0.3311767578125
1774159849192941300,0.69594140625,-0.8330078125,-0.4493255615234375,-0.2838287353515625
1774159849212932400,0.715932373046875,-0.8011322021484375,-0.4789276123046875,-0.2365264892578125
1774159849232922400,0.73592236328125,-0.817291259765625,-0.4883880615234375,-0.2557373046875
1774159849252913200,0.7559130859375,-0.82733154296875,-0.4470672607421875,-0.26141357421875
1774159849272903400,0.7759033203125,-0.798614501953125,-0.5191650390625,-0.2579345703125
1774159849292894500,0.79589453125,-0.8218841552734375,-0.5947113037109375,-0.274993896484375
1774159849312884500,0.815884521484375,-0.8682708740234375,-0.5691680908203125,-0.3426055908203125
1774159849332875500,0.83587548828125,-0.8762664794921875,-0.5425567626953125,-0.3118896484375
1774159849352865500,0.855865478515625,-0.842193603515625,-0.4937591552734375,-0.3011627197265625
1774159849372856300,0.875856201171875,-0.78857421875,-0.4973602294921875,-0.26953125
1774159849392846600,0.8958466796875,-0.686187744140625,-0.584381103515625,-0.2500762939453125
1774159849412837600,0.915837646484375,-0.7418975830078125,-0.5599517822265625,-0.258880615234375
1774159849432827400,0.935827392578125,-0.8382415771484375,-0.4691925048828125,-0.2530517578125
1774159849452818400,0.955818359375,-0.82635498046875,-0.4249114990234375,-0.2519073486328125
1774159849472808400,0.975808349609375,-0.7724151611328125,-0.440887451171875,-0.22796630859375
1774159849492799500,0.995799560546875,-0.791259765625,-0.4449615478515625,-0.1965484619140625
1774159849512789500,1.01578955078125,-0.7062835693359375,-0.5486602783203125,-0.305419921875
1774159849532780300,1.0357802734375,-0.7916259765625,-0.5747833251953125,-0.406005859375
1774159849552770300,1.055770263671875,-1.0272064208984375,-0.435028076171875,-0.4713287353515625
1774159849572761600,1.07576171875,-0.9222412109375,-0.4726409912109375,-0.4617919921875
1774159849592751600,1.095751708984375,-0.826263427734375,-0.751922607421875,-0.764923095703125
1774159849612742400,1.115742431640625,-0.6730194091796875,-0.7063140869140625,-0.50726318359375
1774159849632732400,1.135732421875,-0.7308807373046875,-0.574249267578125,-0.5188446044921875
1774159849652723500,1.155723388671875,-0.7135467529296875,-0.4133453369140625,-0.5828399658203125
1774159849672713500,1.17571337890625,-0.67620849609375,-0.388946533203125,-0.6164703369140625
1774159849692704500,1.19570458984375,-0.7171173095703125,-0.4485931396484375,-0.6573333740234375
1774159849712694500,1.215694580078125,-0.600555419921875,-0.51568603515625,-0.6157684326171875
1774159849732685600,1.235685546875,-0.6213226318359375,-0.4415283203125,-0.511749267578125
1774159849752675600,1.255675537109375,-0.624969482421875,-0.304534912109375,-0.3572540283203125
1774159849772666400,1.275666259765625,-0.6658935546875,-0.281982421875,-0.259674072265625
1774159849792656400,1.295656494140625,-0.7382049560546875,-0.1746063232421875,-0.2665557861328125
1774159849812647700,1.315647705078125,-0.814422607421875,-0.06756591796875,-0.3909454345703125
1774159849832637400,1.335637451171875,-1.045379638671875,-0.1474609375,-0.5026092529296875
1774159849852628500,1.35562841796875,-1.049560546875,-0.16143798828125,-0.6835479736328125
1774159849872618500,1.375618408203125,-0.9356536865234375,-0.26910400390625,-0.6957244873046875
1774159849892609300,1.395609375,-0.7837982177734375,-0.319976806640625,-0.7126617431640625
1774159849912599600,1.415599609375,-0.7455291748046875,-0.226226806640625,-0.7678375244140625
1774159849932589600,1.435589599609375,-0.6968841552734375,-0.1332550048828125,-0.712615966796875
1774159849952580400,1.455580322265625,-0.7229156494140625,-0.0632476806640625,-0.6127166748046875
1774159849972570400,1.4755703125,-0.8327484130859375,-0.0711822509765625,-0.5234222412109375
1774159849992561700,1.495561767578125,-0.8091888427734375,-0.04986572265625,-0.4858856201171875
1774159850012551400,1.515551513671875,-0.77557373046875,-0.05352783203125,-0.38287353515625
1774159850032542500,1.53554248046875,-0.8983917236328125,-0.065948486328125,-0.349609375
1774159850052532500,1.555532470703125,-0.9672393798828125,-0.022857666015625,-0.32464599609375
1774159850072523300,1.575523193359375,-1.027313232421875,-0.0160980224609375,-0.2764739990234375
1774159850092513500,1.595513427734375,-0.981719970703125,0.0013580322265625,-0.2356719970703125
1774159850112504600,1.615504638671875,-0.934173583984375,-0.0261383056640625,-0.2117767333984375
1774159850132494300,1.635494384765625,-0.9879913330078125,-0.0984649658203125,-0.2010955810546875
1774159850152485400,1.6554853515625,-0.9526214599609375,-0.0658111572265625,-0.2000579833984375
1774159850172475600,1.6754755859375,-0.9298248291015625,-0.0280609130859375,-0.1349029541015625
1774159850192466400,1.695466552734375,-0.8567047119140625,0.0009918212890625,-0.0516510009765625
1774159850212456400,1.71545654296875,-0.903350830078125,0.05224609375,-0.0106964111328125
1774159850232447500,1.735447509765625,-0.8404083251953125,0.0126953125,0.0325164794921875
1774159850252437200,1.755437255859375,-0.711212158203125,-0.0244293212890625,0.06658935546875
1774159850272428800,1.7754287109375,-0.9362030029296875,-0.022674560546875,-0.0643463134765625
1774159850292418800,1.795418701171875,-0.962982177734375,0.0191802978515625,-0.1918182373046875
1774159850312409600,1.81540966796875,-0.9377899169921875,0.0055389404296875,-0.2915496826171875
1774159850332399600,1.835399658203125,-0.8162078857421875,0.0001068115234375,-0.402679443359375
1774159850352390000,1.855389892578125,-0.95703125,-0.0723419189453125,-0.7997283935546875
1774159850372380700,1.875380615234375,-0.947540283203125,-0.2996368408203125,-1.24078369140625
1774159850392370700,1.89537060546875,-1.1968231201171875,-0.263519287109375,-1.073211669921875
1774159850412361700,1.91536181640625,-1.1998291015625,-0.07647705078125,-0.823272705078125
1774159850432351700,1.935351806640625,-0.958770751953125,0.3112030029296875,-0.4344940185546875
1774159850452342800,1.9553427734375,-0.6989288330078125,0.1436309814453125,-0.5532989501953125
1774159850472332800,1.975332763671875,-0.6139068603515625,-0.106292724609375,-0.610443115234375
1774159850492323600,1.995323486328125,-0.579925537109375,-0.1361236572265625,-0.6919097900390625
1774159850512313600,2.015313720703125,-0.590911865234375,-0.186126708984375,-0.76885986328125
1774159850532304600,2.0353046875,-0.2288360595703125,-0.2170562744140625,-0.6509857177734375
1774159850552294700,2.055294677734375,-0.1746063232421875,-0.179443359375,-0.731475830078125
1774159850572285700,2.07528564453125,-0.14935302734375,-0.128173828125,-0.818023681640625
1774159850592275700,2.095275634765625,-0.3554229736328125,0.0443267822265625,-0.767730712890625
1774159850612266800,2.115266845703125,-0.710357666015625,0.1745452880859375,-0.7955169677734375
1774159850632256800,2.1352568359375,-0.8497467041015625,0.150177001953125,-0.7850799560546875
1774159850652247600,2.15524755859375,-0.7808837890625,0.194061279296875,-0.76031494140625
1774159850672237600,2.175237548828125,-0.621795654296875,0.2541046142578125,-0.773345947265625
1774159850692228900,2.195228759765625,-0.1749420166015625,0.3977813720703125,-0.74896240234375
1774159850712219000,2.215218994140625,-0.18231201171875,0.5222320556640625,-0.84564208984375
1774159850732209700,2.235209716796875,-0.3950653076171875,0.4115753173828125,-1.03076171875
1774159850752199700,2.25519970703125,-1.3135223388671875,0.4393157958984375,-1.0709991455078125
1774159850772190700,2.275190673828125,-1.0113677978515625,0.3426666259765625,-0.9907379150390625
1774159850792180700,2.2951806640625,-0.4481964111328125,0.3886260986328125,-0.7511749267578125
1774159850812171800,2.315171875,-0.267486572265625,0.377471923828125,-0.6166534423828125
1774159850832161800,2.335161865234375,-0.501251220703125,0.401458740234375,-0.6440277099609375
1774159850852151600,2.355151611328125,-0.5026092529296875,0.454254150390625,-0.680938720703125
1774159850872142800,2.375142822265625,-0.4950714111328125,0.402435302734375,-0.71038818359375
1774159850892132900,2.3951328125,-0.29254150390625,0.2269744873046875,-0.9666595458984375
1774159850912123600,2.41512353515625,-0.2949981689453125,0.492706298828125,-0.728424072265625
1774159850932113700,2.43511376953125,-0.2993927001953125,0.590301513671875,-0.50341796875
1774159850952104700,2.455104736328125,-0.3184051513671875,0.565093994140625,-0.608642578125
1774159850972094700,2.4750947265625,-0.37408447265625,0.44073486328125,-0.966156005859375
1774159850992085800,2.495085693359375,-0.323822021484375,0.62158203125,-0.9124908447265625
1774159851012075800,2.51507568359375,0.1526031494140625,0.8037872314453125,-0.8207550048828125
1774159851032066800,2.53506689453125,0.0092620849609375,1.11309814453125,-0.8104248046875
1774159851052056800,2.555056884765625,-0.0595245361328125,0.9574432373046875,-0.723388671875
1774159851072047600,2.575047607421875,-0.110107421875,0.8568572998046875,-0.6943206787109375
1774159851092037600,2.59503759765625,-0.1869659423828125,0.6673736572265625,-0.6251068115234375
1774159851112027600,2.615027587890625,-0.2159423828125,0.7371368408203125,-0.4688873291015625
1774159851132018700,2.635018798828125,-0.227569580078125,0.73876953125,-0.419525146484375
1774159851152008700,2.6550087890625,-0.3310699462890625,0.804168701171875,-0.5050048828125
1774159851171999700,2.674999755859375,-0.2098541259765625,0.8458251953125,-0.6165008544921875
1774159851191989800,2.69498974609375,0.072265625,0.8080291748046875,-0.586944580078125
1774159851211980800,2.714980712890625,0.0552520751953125,0.8713836669921875,-0.3051300048828125
1774159851231970800,2.734970703125,-0.3134613037109375,0.9598236083984375,-0.0823974609375
1774159851251961600,2.754961669921875,-0.3480072021484375,0.7238311767578125,-0.4117584228515625
1774159851271952000,2.774951904296875,-0.335479736328125,0.6962738037109375,-0.416656494140625
1774159851291943000,2.79494287109375,-0.1964111328125,0.7426300048828125,-0.5645751953125
1774159851311933000,2.814932861328125,-0.2037200927734375,0.77490234375,-0.7364044189453125
1774159851331922700,2.834922607421875,-0.500030517578125,0.8245697021484375,-0.752532958984375
1774159851351914000,2.8549140625,-0.2267608642578125,0.864044189453125,-0.5422821044921875
1774159851371904000,2.874904052734375,-0.2785797119140625,0.8066558837890625,-0.39447021484375
1774159851391894800,2.894894775390625,-0.0897674560546875,0.7365570068359375,-0.3848724365234375
1774159851411884800,2.914884765625,0.0171661376953125,0.7911529541015625,-0.5327301025390625
1774159851431875800,2.934875732421875,-0.1795196533203125,0.8152313232421875,-0.5776214599609375
1774159851451865900,2.954865966796875,-0.341339111328125,0.94342041015625,-0.4687347412109375
1774159851471857000,2.97485693359375,-0.3135833740234375,0.94140625,-0.3889312744140625
1774159851491847000,2.994846923828125,-0.2282562255859375,0.9913177490234375,-0.2765655517578125
1774159851511838000,3.014837890625,0.0178070068359375,1.0989837646484375,-0.0799102783203125
1774159851531828000,3.034827880859375,-0.0570526123046875,0.8958282470703125,-0.2097015380859375
1774159851551818000,3.05481787109375,-0.2479248046875,0.7140655517578125,0.1015777587890625
1774159851571808800,3.074808837890625,-0.4175872802734375,0.690948486328125,0.0604248046875
1774159851591798800,3.094798828125,0.0528106689453125,0.7954254150390625,0.09539794921875
1774159851611789800,3.114789794921875,-0.2036895751953125,0.9742279052734375,-0.066162109375
1774159851631779800,3.13477978515625,-0.3173370361328125,1.1295318603515625,-0.1348724365234375
1774159851651771000,3.15477099609375,-0.431427001953125,1.039398193359375,-0.0791168212890625
1774159851671761000,3.174760986328125,-0.2256011962890625,1.0294189453125,-0.052215576171875
1774159851691752000,3.194751953125,0.075103759765625,0.7586212158203125,0.119598388671875
1774159851711742000,3.214741943359375,0.056793212890625,0.603363037109375,0.04107666015625
1774159851731732000,3.23473193359375,-0.2899932861328125,0.8155975341796875,0.00067138671875
1774159851751722800,3.25472265625,-0.1017608642578125,1.3363037109375,-0.073089599609375
1774159851771712800,3.274712646484375,-0.3015289306640625,1.0763092041015625,-0.11370849609375
1774159851791704000,3.2947041015625,0.0284881591796875,1.287445068359375,-0.1041259765625
1774159851811693800,3.31469384765625,-0.1624908447265625,1.38494873046875,-0.1177215576171875
1774159851831684900,3.334684814453125,-0.3358917236328125,1.3708953857421875,-0.0567474365234375
1774159851851675000,3.3546748046875,-0.1793975830078125,1.2690277099609375,0.08447265625
1774159851871665000,3.374664794921875,-0.125030517578125,1.0336151123046875,-0.0084991455078125
1774159851891656000,3.394656005859375,0.09088134765625,0.90081787109375,-0.01385498046875
1774159851911646000,3.41464599609375,0.0186309814453125,0.94891357421875,0.0188751220703125
1774159851931636700,3.43463671875,-0.0087890625,1.0648345947265625,-0.056671142578125
1774159851951626800,3.454626708984375,0.04010009765625,0.971527099609375,-0.0809478759765625
1774159851971618000,3.4746181640625,-0.113494873046875,0.97509765625,0.0197601318359375
1774159851991607800,3.49460791015625,-0.1557159423828125,0.94287109375,-0.081207275390625
1774159852011597800,3.514597900390625,-0.11419677734375,0.9607086181640625,-0.248931884765625
1774159852031588900,3.5345888671875,0.047943115234375,0.969146728515625,-0.2047271728515625
1774159852051579000,3.554578857421875,0.215972900390625,0.9685516357421875,-0.172576904296875
1774159852071570000,3.57456982421875,0.2003326416015625,1.0802001953125,-0.144287109375
1774159852091560000,3.594559814453125,-0.2000579833984375,0.9449310302734375,-0.1748504638671875
1774159852111550700,3.61455078125,0.793853759765625,1.19525146484375,-0.10723876953125
1774159852131540700,3.634540771484375,-0.6206512451171875,0.91217041015625,-0.1572113037109375
1774159852151532000,3.654531982421875,0.1263885498046875,0.942047119140625,-0.19183349609375
1774159852171521800,3.674521728515625,-0.0247955322265625,1.100494384765625,-0.1087493896484375
1774159852191511800,3.69451171875,-0.2526702880859375,1.038787841796875,-0.1703338623046875
1774159852211502800,3.7145029296875,0.0475311279296875,0.9453887939453125,-0.03826904296875
1774159852231493000,3.7344931640625,-0.0184326171875,1.0499267578125,-0.068939208984375
1774159852251484000,3.75448388671875,-0.0463409423828125,1.08514404296875,-0.10693359375
1774159852271474200,3.77447412109375,-0.0303802490234375,0.997161865234375,-0.0527191162109375
1774159852291465000,3.79446484375,-0.0290069580078125,0.8681640625,-0.017730712890625
1774159852311455200,3.814455322265625,-0.0762939453125,0.8680877685546875,0.04266357421875
1774159852331445200,3.8344453125,-0.1255035400390625,0.9547119140625,0.0621337890625
1774159852351436000,3.85443603515625,-0.232635498046875,0.9762420654296875,0.00128173828125
1774159852371426000,3.874426025390625,-0.0049591064453125,0.9102325439453125,0.1859588623046875
1774159852391417000,3.8944169921875,0.2715301513671875,1.1146392822265625,0.0766754150390625
1774159852411407400,3.914407470703125,-0.2797088623046875,0.9564971923828125,0.21051025390625
1774159852431398100,3.934398193359375,-0.2365875244140625,0.7149505615234375,0.088653564453125
1774159852451388200,3.95438818359375,-0.051055908203125,0.77215576171875,0.103271484375
1774159852471378200,3.974378173828125,0.0601348876953125,1.18865966796875,0.176300048828125
1774159852491369200,3.994369140625,-0.0233001708984375,1.0863189697265625,0.3281402587890625
1774159852511359200,4.014359130859375,0.089508056640625,0.997894287109375,0.3797454833984375
1774159852531350000,4.03435009765625,0.08843994140625,1.1145172119140625,0.395416259765625
1774159852551340000,4.054340087890625,0.0726776123046875,1.0483551025390625,0.2424163818359375
1774159852571331000,4.0743310546875,-0.0438385009765625,0.9753265380859375,0.12823486328125
1774159852591321300,4.0943212890625,0.0438079833984375,0.97222900390625,0.13555908203125
1774159852611311000,4.11431103515625,0.0568084716796875,1.0576629638671875,0.1804962158203125
1774159852631302100,4.13430224609375,-0.1332550048828125,1.12322998046875,0.2002410888671875
1774159852651292200,4.154292236328125,-0.0627593994140625,1.05145263671875,0.259368896484375
1774159852671283200,4.174283203125,-0.1933746337890625,1.0056304931640625,0.243255615234375
1774159852691273200,4.194273193359375,-0.0437774658203125,0.6098480224609375,0.19598388671875
1774159852711264300,4.21426416015625,-0.1858062744140625,0.6964263916015625,0.090484619140625
1774159852731254000,4.23425390625,-0.10845947265625,0.7174530029296875,0.040130615234375
1774159852751244000,4.254244140625,-0.2864990234375,0.82720947265625,-0.040863037109375
1774159852771235300,4.2742353515625,-0.3884735107421875,0.7861328125,0.047821044921875
1774159852791225000,4.29422509765625,-0.232696533203125,0.679473876953125,0.1516876220703125
1774159852811216100,4.314216064453125,0.2142791748046875,0.6681671142578125,0.2060699462890625
1774159852831206100,4.3342060546875,0.304412841796875,0.8753814697265625,0.134735107421875
1774159852851197200,4.354197265625,0.1398773193359375,1.139984130859375,0.095550537109375
1774159852871187200,4.374187255859375,0.547698974609375,1.291534423828125,0.24853515625
1774159852891177200,4.39417724609375,0.069854736328125,1.1598358154296875,0.5002899169921875
1774159852911168000,4.41416796875,0.2054443359375,1.35772705078125,0.132904052734375
1774159852931158000,4.434157958984375,0.134765625,1.2689208984375,-0.0270538330078125
1774159852951149300,4.4541494140625,0.119232177734375,1.3552093505859375,-0.122100830078125
1774159852971139000,4.47413916015625,0.1840667724609375,0.9413909912109375,0.115234375
1774159852991129000,4.494129150390625,0.2218475341796875,1.0984649658203125,0.1167755126953125
1774159853011120000,4.5141201171875,-0.03131103515625,1.0115509033203125,0.0404052734375
1774159853031110100,4.534110107421875,-0.0754547119140625,1.15234375,0.049713134765625
1774159853051101200,4.55410107421875,0.0375213623046875,1.2683258056640625,0.4427337646484375
1774159853071091200,4.57409130859375,0.431884765625,1.4257354736328125,0.4783782958984375
1774159853091082000,4.59408203125,-0.6289215087890625,1.61553955078125,-0.1315765380859375
1774159853111072000,4.614072021484375,-0.194580078125,0.7509765625,-0.244110107421875
1774159853131062000,4.63406201171875,-0.04205322265625,0.521270751953125,-0.268768310546875
1774159853151053300,4.65405322265625,-0.098602294921875,0.5558013916015625,-0.0514678955078125
1774159853171043000,4.67404296875,-0.0928955078125,0.72344970703125,0.0207672119140625
1774159853191034000,4.6940341796875,-0.2603302001953125,0.676666259765625,0.1872406005859375
1774159853211024100,4.714024169921875,-0.3763275146484375,0.7833099365234375,0.1646575927734375
1774159853231014100,4.73401416015625,-0.3681640625,1.1075897216796875,0.087432861328125
1774159853251005200,4.754005126953125,-0.1454010009765625,1.1924896240234375,0.044464111328125
1774159853270995200,4.7739951171875,0.0889129638671875,1.106475830078125,0.04779052734375
1774159853290986000,4.793986083984375,0.072784423828125,1.0023040771484375,-0.0039825439453125
1774159853310976000,4.81397607421875,0.101715087890625,0.8456878662109375,-0.0811614990234375
1774159853330967300,4.83396728515625,0.04949951171875,0.8609161376953125,-0.0602264404296875
1774159853350957000,4.85395703125,0.014862060546875,1.0454864501953125,-0.11376953125
1774159853370947000,4.873947021484375,0.0755615234375,1.3016510009765625,-0.1028900146484375
1774159853390938000,4.893938232421875,-0.0849609375,1.070281982421875,-0.1635589599609375
1774159853410928000,4.91392822265625,0.12158203125,0.963531494140625,-0.200408935546875
1774159853430919200,4.933919189453125,0.1494140625,1.092864990234375,-0.224700927734375
1774159853450909200,4.9539091796875,0.0227203369140625,0.86639404296875,-0.209136962890625
1774159853470899200,4.973899169921875,0.176910400390625,0.8397369384765625,-0.1350250244140625
1774159853490890000,4.993889892578125,-0.018096923828125,0.7899017333984375,-0.1013946533203125
1774159853510880300,5.01388037109375,-0.31304931640625,1.0016021728515625,-0.136016845703125
1774159853530871000,5.03387109375,0.06744384765625,0.850250244140625,-0.0421600341796875
1774159853550861000,5.053861083984375,0.15093994140625,0.759918212890625,-0.02056884765625
1774159853570852000,5.07385205078125,0.0467987060546875,0.7866973876953125,0.0339508056640625
1774159853590842400,5.09384228515625,0.014862060546875,0.96270751953125,0.037261962890625
1774159853610832100,5.11383203125,-0.01348876953125,1.020172119140625,-0.0010528564453125
1774159853630823200,5.1338232421875,-0.1434326171875,0.95703125,-0.0161285400390625
1774159853650813200,5.153813232421875,0.055999755859375,0.8134765625,-0.0390625
1774159853670804000,5.173803955078125,0.13970947265625,0.9368438720703125,-0.074462890625
1774159853690794200,5.193794189453125,0.010101318359375,1.280059814453125,-0.2649078369140625
1774159853710784300,5.2137841796875,0.198883056640625,1.36846923828125,0.0186614990234375
1774159853730775000,5.233775146484375,0.084716796875,1.2798614501953125,0.0960235595703125
1774159853750765000,5.25376513671875,-0.3494720458984375,1.2454681396484375,-0.006011962890625
1774159853770756400,5.27375634765625,-0.8403778076171875,1.36126708984375,-0.1911163330078125
1774159853790746000,5.29374609375,-0.5196380615234375,0.98516845703125,-0.14752197265625
1774159853810736000,5.313736083984375,0.1982879638671875,0.593902587890625,0.055999755859375
1774159853830727200,5.33372705078125,0.54962158203125,0.8509979248046875,0.0662689208984375
1774159853850717200,5.35371728515625,-0.14593505859375,1.066009521484375,0.0321197509765625
1774159853870708200,5.373708251953125,-0.1562652587890625,0.997406005859375,-0.1064300537109375
1774159853890698200,5.3936982421875,-0.130279541015625,0.9458465576171875,-0.065399169921875
1774159853910688300,5.413688232421875,-0.1743011474609375,1.166595458984375,-0.0894012451171875
1774159853930679000,5.433678955078125,0.1023406982421875,1.20465087890625,-0.020263671875
1774159853950669000,5.4536689453125,-0.20574951171875,1.16278076171875,0.0010986328125
1774159853970660000,5.47366015625,-0.1948089599609375,1.201385498046875,-0.011444091796875
1774159853990650000,5.493650146484375,-0.0522003173828125,1.111663818359375,-0.064300537109375
1774159854010640100,5.51364013671875,0.1567535400390625,0.943756103515625,-0.11083984375
1774159854030631200,5.533631103515625,0.19122314453125,0.8442840576171875,-0.1369781494140625
1774159854050621000,5.553620849609375,0.1615142822265625,0.890045166015625,-0.1331634521484375
1774159854070612200,5.5736123046875,0.118408203125,0.8938140869140625,-0.11090087890625
1774159854090602200,5.593602294921875,0.19512939453125,1.1025390625,-0.0856475830078125
1774159854110592000,5.613592041015625,0.085540771484375,0.9268341064453125,-0.08319091796875
1774159854130583000,5.6335830078125,0.073974609375,0.6732940673828125,-0.08197021484375
1774159854150573300,5.6535732421875,0.0000152587890625,0.65899658203125,-0.0471649169921875
1774159854170564000,5.673564208984375,-0.0186309814453125,0.7805938720703125,0.004974365234375
1774159854190554000,5.69355419921875,0.1488494873046875,0.8767242431640625,0.0009918212890625
1774159854210545200,5.713545166015625,0.06817626953125,1.0520172119140625,0.194183349609375
1774159854230535000,5.733534912109375,0.0279083251953125,0.702880859375,0.159088134765625
1774159854250525200,5.753525146484375,0.127166748046875,0.919036865234375,0.131439208984375
1774159854270516500,5.7735166015625,0.1020660400390625,0.8417816162109375,0.0770416259765625
1774159854290506200,5.79350634765625,-0.14996337890625,0.536712646484375,0.283935546875
1774159854310497300,5.813497314453125,0.0443572998046875,0.8652801513671875,0.321990966796875
1774159854330487600,5.833487548828125,0.1515960693359375,1.1787872314453125,0.311737060546875
1774159854350477600,5.8534775390625,-0.6024322509765625,1.24102783203125,0.182586669921875
1774159854370468400,5.87346826171875,-0.576019287109375,1.2117462158203125,-0.0342559814453125
1774159854390458400,5.893458251953125,0.0985870361328125,1.1562957763671875,-0.299285888671875
1774159854410449400,5.913449462890625,0.0623626708984375,1.1679840087890625,-0.2592010498046875
1774159854430439400,5.933439453125,0.5311279296875,1.3647613525390625,-0.02667236328125
1774159854450429400,5.953429443359375,-0.1458740234375,1.5160369873046875,0.052886962890625
1774159854470420500,5.97342041015625,-0.0939788818359375,1.2589874267578125,-0.230560302734375
1774159854490410200,5.99341015625,0.0139617919921875,0.6844635009765625,-0.3930206298828125
1774159854510400300,6.013400146484375,0.0105438232421875,0.7812042236328125,-0.4021453857421875
1774159854530391600,6.0333916015625,-0.046051025390625,1.0986328125,-0.30194091796875
1774159854550381300,6.05338134765625,0.051727294921875,1.287261962890625,-0.2920074462890625
1774159854570372400,6.073372314453125,0.09326171875,1.2678070068359375,-0.22357177734375
1774159854590362400,6.0933623046875,-0.200958251953125,1.0186920166015625,-0.09716796875
1774159854610352400,6.113352294921875,-0.12744140625,0.9395294189453125,0.0606536865234375
1774159854630343400,6.133343505859375,0.1434783935546875,0.867584228515625,0.1185455322265625
1774159854650333400,6.15333349609375,0.3057861328125,0.7410888671875,0.1849517822265625
1774159854670324200,6.17332421875,0.0921173095703125,0.7303466796875,0.2046051025390625
1774159854690314200,6.193314208984375,0.1240081787109375,0.7745361328125,0.0772705078125
1774159854710304500,6.213304443359375,0.077301025390625,0.85198974609375,-0.0406951904296875
1774159854730295300,6.23329541015625,0.009765625,0.9093170166015625,-0.0653076171875
1774159854750285300,6.253285400390625,-0.0106658935546875,0.966339111328125,-0.08416748046875
1774159854770276400,6.2732763671875,0.00091552734375,0.99420166015625,-0.1108856201171875
1774159854790266400,6.293266357421875,0.0320281982421875,0.95245361328125,-0.1342315673828125
1774159854810256400,6.31325634765625,0.0246429443359375,0.9461669921875,-0.1223297119140625
1774159854830247400,6.333247314453125,0.072021484375,0.9303741455078125,-0.1242523193359375
1774159854850237400,6.353237548828125,0.0674285888671875,0.8852386474609375,-0.1225738525390625
1774159854870227500,6.3732275390625,0.0852813720703125,0.861846923828125,-0.0529632568359375
1774159854890218500,6.393218505859375,0.0875091552734375,0.9303131103515625,0.01507568359375
1774159854910208500,6.41320849609375,0.0619354248046875,1.03546142578125,-0.027191162109375
1774159854930199300,6.43319921875,0.02667236328125,1.0867462158203125,-0.1308441162109375
1774159854950189300,6.453189208984375,0.0037994384765625,1.0927886962890625,-0.2003936767578125
1774159854970179300,6.473179443359375,-0.010406494140625,1.1474151611328125,-0.180694580078125
1774159854990170400,6.49317041015625,0.034912109375,1.1974334716796875,-0.011199951171875
1774159855010160400,6.513160400390625,-0.0130615234375,1.2546539306640625,0.1356353759765625
1774159855030151400,6.5331513671875,-0.0209197998046875,1.108306884765625,0.2161865234375
1774159855050141400,6.553141357421875,-0.05157470703125,1.05255126953125,0.123687744140625
1774159855070131200,6.573131103515625,0.0193939208984375,0.99957275390625,0.0184478759765625
1774159855090122500,6.59312255859375,-0.04376220703125,0.95220947265625,0.0615692138671875
1774159855110112500,6.613112548828125,-0.1170654296875,1.0289764404296875,0.215728759765625
1774159855130102300,6.633102294921875,-0.2491455078125,1.0397491455078125,0.1749420166015625
1774159855150093300,6.65309326171875,-0.2362060546875,1.1081390380859375,0.0509490966796875
1774159855170083300,6.673083251953125,-0.165496826171875,1.0784454345703125,-0.0929718017578125
1774159855190074400,6.693074462890625,-0.1323699951171875,1.03826904296875,-0.126495361328125
1774159855210064400,6.713064453125,-0.0893096923828125,1.0713958740234375,-0.0969390869140625
1774159855230054400,6.733054443359375,-0.0283966064453125,1.075408935546875,-0.067047119140625
1774159855250045200,6.753045166015625,-0.017913818359375,1.0411376953125,-0.01806640625
1774159855270034400,6.773034423828125,0.018096923828125,0.9587249755859375,0.0169677734375
1774159855290024400,6.7930244140625,-0.006622314453125,0.8627471923828125,0.013702392578125
1774159855310015700,6.813015625,-0.0252227783203125,0.8470306396484375,0.0124969482421875
1774159855330005800,6.833005859375,-0.0312957763671875,0.8264617919921875,0.0183563232421875
1774159855349996500,6.85299658203125,-0.066436767578125,0.7885284423828125,-0.0094146728515625
1774159855369986600,6.872986572265625,-0.028472900390625,0.8260345458984375,0.0169830322265625
1774159855389976600,6.8929765625,-0.0467376708984375,0.83026123046875,0.058441162109375
1774159855409967600,6.912967529296875,-0.0388946533203125,0.893310546875,0.0529327392578125
1774159855429957600,6.93295751953125,-0.065643310546875,0.9182281494140625,0.0842132568359375
1774159855449947600,6.95294775390625,-0.0334625244140625,0.9303741455078125,0.1178436279296875
1774159855469938400,6.9729384765625,0.0254974365234375,1.027923583984375,0.109527587890625
1774159855489928400,6.992928466796875,0.049072265625,1.004638671875,0.077178955078125
1774159855509919700,7.012919677734375,0.0639801025390625,1.0009918212890625,0.0644378662109375
1774159855529909500,7.032909423828125,0.0818939208984375,1.0090484619140625,0.0191497802734375
1774159855549899500,7.0528994140625,0.0558013916015625,1.0659332275390625,0.096893310546875
1774159855569890600,7.072890625,0.100982666015625,1.093109130859375,0.0637054443359375
1774159855589880800,7.092880859375,0.1338043212890625,1.1041107177734375,0.0084075927734375
1774159855609870600,7.11287060546875,0.114044189453125,1.0885162353515625,0.032806396484375
1774159855629861600,7.132861572265625,0.048492431640625,1.083160400390625,0.093536376953125
1774159855649851600,7.1528515625,0.0795745849609375,1.2065277099609375,0.0891571044921875
1774159855669842400,7.172842529296875,0.0393524169921875,1.23388671875,0.023895263671875
1774159855689832700,7.192832763671875,-0.00335693359375,1.3440093994140625,-0.0744476318359375
1774159855709822700,7.21282275390625,-0.1149749755859375,1.435638427734375,-0.2281646728515625
1774159855729813500,7.2328134765625,-0.2183074951171875,1.0623931884765625,-0.194488525390625
1774159855749803500,7.252803466796875,-0.1667327880859375,0.7216339111328125,-0.0489959716796875
1774159855769793500,7.27279345703125,-0.0179901123046875,0.6688079833984375,-0.167388916015625
1774159855789784600,7.29278466796875,0.05426025390625,0.7767181396484375,-0.362701416015625
1774159855809774600,7.312774658203125,0.064208984375,0.965606689453125,-0.476226806640625
1774159855829764600,7.3327646484375,0.0400238037109375,1.133087158203125,-0.41949462890625
1774159855849755600,7.352755615234375,-0.0697174072265625,1.2804412841796875,-0.1466217041015625
1774159855869745400,7.372745361328125,-0.05999755859375,1.01141357421875,-0.06988525390625
1774159855889736700,7.39273681640625,0.043731689453125,0.9014892578125,-0.049468994140625
1774159855909726700,7.412726806640625,0.0275726318359375,0.8644256591796875,0.0233154296875
1774159855929716500,7.432716552734375,0.0033111572265625,0.8658447265625,0.023223876953125
1774159855949707500,7.45270751953125,0.043426513671875,0.9016571044921875,-0.0202484130859375
1774159855969697800,7.47269775390625,0.017333984375,0.8899993896484375,-0.07861328125
1774159855989687800,7.492687744140625,0.0326995849609375,0.84912109375,-0.1693572998046875
1774159856009678600,7.5126787109375,0.1305084228515625,0.826080322265625,-0.217681884765625
1774159856029668600,7.532668701171875,0.1793670654296875,0.8824310302734375,-0.1594085693359375
1774159856049658600,7.55265869140625,0.1768035888671875,0.9630889892578125,-0.1729278564453125
1774159856069649700,7.572649658203125,0.1270294189453125,0.95587158203125,-0.194580078125
1774159856089639700,7.5926396484375,0.151397705078125,0.8661041259765625,-0.2367706298828125
1774159856109630500,7.61263037109375,0.100433349609375,0.8571319580078125,-0.1824493408203125
1774159856129620500,7.632620361328125,0.1844329833984375,0.8818206787109375,-0.1354827880859375
1774159856149610500,7.652610595703125,0.18316650390625,0.9188995361328125,-0.071990966796875
1774159856169601800,7.672601806640625,0.1541290283203125,1.0221710205078125,-0.0801544189453125
1774159856189591600,7.692591552734375,0.116424560546875,1.04754638671875,-0.1343231201171875
1774159856209581600,7.71258154296875,0.0142364501953125,1.05584716796875,0.0018310546875
1774159856229572600,7.732572509765625,0.05877685546875,0.991973876953125,-0.2238616943359375
1774159856249562600,7.752562744140625,0.18499755859375,1.062103271484375,-0.077728271484375
1774159856269553000,7.772552978515625,0.197509765625,1.1032867431640625,0.0339813232421875
1774159856289544000,7.7925439453125,0.13189697265625,1.112701416015625,0.0937652587890625
1774159856309534000,7.812533935546875,0.098358154296875,1.1259307861328125,0.070648193359375
1774159856329525000,7.83252490234375,-0.029296875,1.17657470703125,0.0686187744140625
1774159856349515000,7.852514892578125,-0.1351776123046875,1.1976165771484375,-0.0717315673828125
1774159856369505000,7.872505126953125,-0.1529083251953125,1.1015472412109375,-0.2631683349609375
1774159856389496000,7.89249609375,-0.0644989013671875,0.8598175048828125,-0.1831512451171875
1774159856409486000,7.912486083984375,-0.0474395751953125,0.8987274169921875,-0.066497802734375
1774159856429476000,7.93247607421875,-0.141357421875,0.9384918212890625,-0.01446533203125
1774159856449467000,7.952466796875,-0.073638916015625,1.127777099609375,-0.15643310546875
1774159856469457000,7.972456787109375,-0.067779541015625,1.2299041748046875,-0.2810516357421875
1774159856489447000,7.992447021484375,0.0104217529296875,1.1689605712890625,-0.2601776123046875
1774159856509438000,8.01243798828125,0.02203369140625,1.0302581787109375,-0.1677093505859375
1774159856529428000,8.032427978515624,0.027496337890625,1.02099609375,-0.105438232421875
1774159856549418000,8.05241796875,-0.00921630859375,1.0359649658203125,-0.094940185546875
1774159856569408800,8.07240869140625,0.0260162353515625,0.9628143310546875,-0.0026702880859375
1774159856589398800,8.092398681640624,0.089996337890625,0.9303741455078125,-0.00103759765625
1774159856609389000,8.11238916015625,0.0054779052734375,0.861480712890625,-0.071929931640625
1774159856629380000,8.132380126953125,-0.0179290771484375,0.811553955078125,-0.1062774658203125
1774159856649369900,8.152369873046876,0.0036773681640625,0.8258514404296875,-0.10638427734375
1774159856669361000,8.17236083984375,-0.0023040771484375,0.8677215576171875,-0.0626373291015625
1774159856689351200,8.19235107421875,0.028778076171875,0.8674163818359375,-0.039581298828125
1774159856709341000,8.2123408203125,0.0217132568359375,0.863006591796875,-0.06787109375
1774159856729332000,8.23233203125,0.01910400390625,0.8950958251953125,-0.0419158935546875
1774159856749322000,8.252322021484375,0.0308990478515625,0.8951263427734375,-0.0132598876953125
1774159856769312000,8.27231201171875,0.0949249267578125,0.9069976806640625,-0.01025390625
1774159856789303000,8.292302978515625,0.0913238525390625,0.9093170166015625,-0.0669708251953125
1774159856809293000,8.31229296875,0.07769775390625,0.9506988525390625,-0.062103271484375
1774159856829283000,8.332282958984376,0.0416717529296875,0.9833831787109375,0.000091552734375
1774159856849273900,8.35227392578125,0.079376220703125,1.0604248046875,-0.0102081298828125
1774159856869264000,8.372263916015624,0.0860748291015625,1.0426483154296875,-0.025115966796875
1774159856889254000,8.39225390625,0.1010284423828125,1.0670623779296875,-0.015899658203125
1774159856909245000,8.412244873046875,-0.0292510986328125,1.149505615234375,-0.03466796875
1774159856929235000,8.43223486328125,0.2418975830078125,1.148223876953125,0.0140228271484375
1774159856949225000,8.452224853515625,0.2015228271484375,1.1933441162109375,-0.0509033203125
1774159856969215700,8.4722158203125,0.162261962890625,1.1602783203125,-0.1068878173828125
1774159856989206000,8.4922060546875,0.0115814208984375,1.16864013671875,-0.200775146484375
1774159857009196000,8.512196044921875,0.020965576171875,1.264892578125,-0.2718658447265625
1774159857029187000,8.53218701171875,-0.0114593505859375,1.1171112060546875,-0.23004150390625
1774159857049176800,8.5521767578125,0.04766845703125,0.9171600341796875,-0.2939300537109375
1774159857069167900,8.57216796875,0.068756103515625,0.799774169921875,-0.473724365234375
1774159857089158100,8.592158203125,0.166107177734375,0.8334503173828125,-0.4455413818359375
1774159857109148000,8.61214794921875,0.1114959716796875,1.085968017578125,-0.1944122314453125
1774159857129139000,8.632138916015625,0.0270233154296875,1.1468048095703125,-0.187896728515625
1774159857149129000,8.65212890625,-0.0129241943359375,1.1096954345703125,-0.1284637451171875
1774159857169119000,8.672118896484376,-0.0185546875,1.0035247802734375,-0.1147918701171875
1774159857189110000,8.692110107421875,0.007049560546875,0.9196929931640625,-0.137481689453125
1774159857209100000,8.71210009765625,0.09844970703125,0.8905487060546875,-0.0804901123046875
1774159857229090000,8.732090087890626,0.112884521484375,0.8558502197265625,0.035400390625
1774159857249080800,8.752080810546875,0.0519561767578125,0.808441162109375,-0.0168304443359375
1774159857269072100,8.772072021484375,0.0045928955078125,0.795440673828125,-0.0123138427734375
1774159857289062100,8.792062255859374,-0.0113372802734375,0.8522796630859375,-0.0743865966796875
1774159857309053000,8.812052978515625,0.111785888671875,0.919708251953125,-0.21160888671875
1774159857329043000,8.83204296875,0.110443115234375,0.8828887939453125,-0.295867919921875
1774159857349033200,8.852033203125,0.0933380126953125,0.881317138671875,-0.255126953125
1774159857369024000,8.87202392578125,0.1094818115234375,0.8886260986328125,-0.178375244140625
1774159857389014000,8.892013916015625,0.0682373046875,0.916748046875,-0.1250762939453125
1774159857409004000,8.912004150390626,0.0732421875,0.934478759765625,-0.148193359375
1774159857428994800,8.931994873046875,0.146148681640625,0.91949462890625,-0.135528564453125
1774159857448985000,8.951985107421875,0.1164703369140625,0.9135284423828125,-0.0941619873046875
1774159857468975000,8.97197509765625,0.0823974609375,0.9288330078125,-0.104339599609375
1774159857488966000,8.9919658203125,0.1278533935546875,0.990997314453125,-0.2248077392578125
1774159857508956000,9.011955810546874,0.1095733642578125,1.003692626953125,-0.2592315673828125
1774159857528946000,9.03194580078125,0.078216552734375,1.0775604248046875,-0.2718658447265625
1774159857548937000,9.05193701171875,0.1080169677734375,1.21063232421875,-0.2422332763671875
1774159857568927000,9.071927001953124,0.0190277099609375,1.269775390625,-0.10821533203125
1774159857588917000,9.0919169921875,0.044830322265625,1.211700439453125,0.0139923095703125
1774159857608908000,9.111907958984375,-0.002716064453125,1.227508544921875,0.00982666015625
1774159857628897800,9.131897705078124,-0.0696563720703125,1.2079010009765625,-0.017578125
1774159857648888000,9.15188818359375,-0.026885986328125,1.13153076171875,-0.06414794921875
1774159857668879000,9.171879150390625,-0.0822906494140625,0.9339447021484375,-0.1353912353515625
1774159857688869000,9.191869140625,-0.17401123046875,0.725006103515625,-0.1839141845703125
1774159857708859000,9.21185888671875,-0.195709228515625,0.7366485595703125,-0.031707763671875
1774159857728850200,9.23185009765625,-0.1997528076171875,0.95880126953125,0.0442962646484375
1774159857748840200,9.251840087890624,-0.179107666015625,1.14398193359375,0.0131988525390625
1774159857768830000,9.271829833984375,-0.1338348388671875,1.2599639892578125,-0.091064453125
1774159857788821000,9.291821044921875,-0.1616973876953125,1.203033447265625,-0.19873046875
1774159857808811000,9.31181103515625,-0.1002349853515625,1.08880615234375,-0.2554931640625
1774159857828801000,9.331801025390625,0.0672760009765625,1.0817413330078125,-0.206512451171875
1774159857848792000,9.3517919921875,0.09710693359375,1.0382232666015625,-0.049102783203125
1774159857868782000,9.371781982421876,-0.0736236572265625,0.920928955078125,0.05816650390625
1774159857888772000,9.391772216796875,-0.0868072509765625,0.882476806640625,0.0440521240234375
1774159857908763000,9.411762939453125,-0.0573577880859375,0.7821502685546875,-0.021728515625
1774159857928753000,9.4317529296875,-0.090057373046875,0.7785186767578125,-0.1009368896484375
1774159857948743200,9.4517431640625,-0.0582733154296875,0.7938385009765625,-0.1128997802734375
1774159857968734000,9.47173388671875,-0.0284881591796875,0.789520263671875,-0.0446319580078125
1774159857988724000,9.491723876953126,-0.0426177978515625,0.8219451904296875,0.0204010009765625
1774159858008714000,9.5117138671875,-0.044952392578125,0.841064453125,-0.0191650390625
1774159858028705000,9.531705078125,-0.0180511474609375,0.8345794677734375,-0.016021728515625
1774159858048695000,9.551695068359376,-0.1435394287109375,0.936737060546875,-0.059051513671875
1774159858068685000,9.57168505859375,-0.1025238037109375,0.9034271240234375,-0.037445068359375
1774159858088676000,9.591676025390624,-0.026580810546875,0.96405029296875,-0.011810302734375
1774159858108665900,9.611665771484375,-0.00140380859375,1.003448486328125,0.000396728515625
1774159858128656000,9.63165576171875,0.0247650146484375,1.0263671875,-0.020538330078125
1774159858148647200,9.651647216796874,0.006927490234375,1.07379150390625,-0.047576904296875
1774159858168637000,9.671636962890625,-0.0421295166015625,1.1046295166015625,-0.01129150390625
1774159858188627000,9.691626953125,0.0050506591796875,1.1287384033203125,-0.0043182373046875
1774159858208618000,9.711617919921874,0.0177459716796875,1.176605224609375,-0.093902587890625
1774159858228608000,9.73160791015625,-0.023956298828125,1.24725341796875,-0.2876434326171875
1774159858248598000,9.751597900390625,-0.030487060546875,1.296234130859375,-0.3910675048828125
1774159858268589000,9.771589111328124,-0.0752410888671875,1.4019927978515625,-0.25286865234375
1774159858288577300,9.791577392578125,-0.1574249267578125,1.3404541015625,-0.1725006103515625
1774159858308567300,9.8115673828125,-0.163116455078125,0.917083740234375,-0.3041229248046875
1774159858328558300,9.831558349609375,-0.1154327392578125,0.7484893798828125,-0.3543853759765625
1774159858348548400,9.85154833984375,-0.039337158203125,0.645233154296875,-0.2286376953125
1774159858368538400,9.871538330078126,0.04876708984375,0.8332061767578125,-0.127838134765625
1774159858388529400,9.891529296875,0.03131103515625,1.0625762939453125,-0.1414031982421875
1774159858408519200,9.911519287109375,-0.0202789306640625,1.151275634765625,-0.2955780029296875
1774159858428509200,9.93150927734375,-0.0685577392578125,1.142181396484375,-0.328948974609375
1774159858448500500,9.95150048828125,-0.0824737548828125,1.013702392578125,-0.26312255859375
1774159858468490200,9.971490234375,-0.0077362060546875,0.95513916015625,-0.19573974609375
1774159858488480300,9.991480224609376,0.0403594970703125,0.98785400390625,-0.11444091796875
1774159858508471300,10.01147119140625,0.0312652587890625,1.0015716552734375,-0.0598907470703125
1774159858528461600,10.031461669921875,0.0382232666015625,0.9088134765625,-0.0933990478515625
1774159858548451300,10.051451416015626,0.0500946044921875,0.7790679931640625,-0.168670654296875
1774159858568442400,10.0714423828125,0.0745391845703125,0.742919921875,-0.1819000244140625
1774159858588432400,10.091432373046874,0.089447021484375,0.769012451171875,-0.1549835205078125
1774159858608422400,10.11142236328125,0.0991058349609375,0.779541015625,-0.113739013671875
1774159858628413400,10.131413330078125,0.1042327880859375,0.78515625,-0.193878173828125
1774159858648403500,10.151403564453124,0.0912933349609375,0.8465118408203125,-0.1165924072265625
1774159858668393500,10.1713935546875,0.0807647705078125,0.833160400390625,-0.0986785888671875
1774159858688384300,10.19138427734375,0.102996826171875,0.8237457275390625,-0.1174774169921875
1774159858708374300,10.211374267578124,0.1048126220703125,0.8653411865234375,-0.098968505859375
1774159858728364300,10.2313642578125,0.0890045166015625,0.9179534912109375,-0.1457977294921875
1774159858748355300,10.251355224609375,-0.0311737060546875,0.9169158935546875,-0.2103424072265625
1774159858768345300,10.271345458984374,0.0669708251953125,0.9898681640625,-0.324432373046875
1774159858788335400,10.29133544921875,-0.029327392578125,1.1006317138671875,-0.3318023681640625
1774159858808326100,10.311326171875,0.01763916015625,1.1707305908203125,-0.2342071533203125
1774159858828316400,10.33131640625,0.06964111328125,1.1625518798828125,-0.0199127197265625
1774159858848306400,10.351306396484375,0.462890625,1.1741180419921875,0.0452880859375
1774159858868297200,10.371297119140625,-0.3326416015625,1.242401123046875,0.067047119140625
1774159858888287200,10.391287353515626,-0.420074462890625,1.376373291015625,0.039794921875
1774159858908277200,10.41127734375,-0.3178558349609375,1.3988189697265625,-0.0872802734375
1774159858928268500,10.4312685546875,-0.1553955078125,1.031097412109375,-0.1070404052734375
1774159858948258300,10.45125830078125,-0.2143707275390625,0.78582763671875,0.002716064453125
1774159858968248300,10.471248291015625,-0.1486358642578125,0.7974853515625,0.1090850830078125
1774159858988238300,10.49123828125,-0.14410400390625,0.9518890380859375,0.144500732421875
1774159859008229400,10.5112294921875,-0.2155609130859375,1.168975830078125,0.0503692626953125
1774159859028219400,10.531219482421875,-0.1532440185546875,1.3065643310546875,-0.17535400390625
1774159859048209400,10.55120947265625,-0.144073486328125,1.32916259765625,-0.298675537109375
1774159859068200400,10.571200439453126,-0.1707763671875,1.0744171142578125,-0.199920654296875
1774159859088190200,10.591190185546875,-0.05352783203125,0.9997711181640625,-0.1014556884765625
1774159859108180200,10.61118017578125,-0.0061187744140625,0.964141845703125,-0.0785675048828125
1774159859128171500,10.631171630859376,-0.0185546875,0.8839111328125,-0.092010498046875
1774159859148161500,10.65116162109375,-0.0756378173828125,0.8404693603515625,-0.1127471923828125
1774159859168151300,10.6711513671875,-0.1384735107421875,0.79034423828125,-0.089752197265625
1774159859188142300,10.691142333984375,-0.12261962890625,0.751861572265625,-0.05230712890625
1774159859208132400,10.71113232421875,-0.109649658203125,0.7557525634765625,-0.0197296142578125
1774159859228122000,10.7311220703125,-0.0527191162109375,0.7629241943359375,0.0121307373046875
1774159859248113400,10.751113525390625,-0.00579833984375,0.7960662841796875,0.0233917236328125
1774159859268103400,10.771103515625,-0.0191650390625,0.8381805419921875,0.01568603515625
1774159859288095700,10.791095703125,-0.0659942626953125,0.855133056640625,0.009063720703125
1774159859308086500,10.81108642578125,-0.0833282470703125,0.8759307861328125,0.0225677490234375
1774159859328076500,10.83107666015625,-0.0592041015625,0.925201416015625,0.02899169921875
1774159859348066600,10.851066650390624,-0.02435302734375,0.967254638671875,0.0121917724609375
1774159859368057600,10.8710576171875,-0.01763916015625,0.9931182861328125,0.0010833740234375
1774159859388047600,10.891047607421875,-0.008544921875,1.029296875,-0.02410888671875
1774159859408037600,10.91103759765625,-0.0230255126953125,1.0689697265625,-0.038177490234375
1774159859428028700,10.931028564453126,-0.0231170654296875,1.11968994140625,-0.04425048828125
1774159859448018400,10.951018310546875,0.034454345703125,1.1520233154296875,-0.049468994140625
1774159859468008400,10.971008544921874,0.1067352294921875,1.212066650390625,-0.082366943359375
1774159859487998500,10.99099853515625,0.0953521728515625,1.324554443359375,-0.14251708984375
1774159859507989800,11.01098974609375,0.01678466796875,1.35888671875,-0.1072998046875
1774159859527979500,11.0309794921875,-0.1156005859375,1.3810882568359375,-0.0388336181640625
1774159859547969500,11.050969482421875,-0.19976806640625,1.3894500732421875,-0.10711669921875
1774159859567960600,11.070960693359375,-0.2175140380859375,1.2275543212890625,-0.1764984130859375
1774159859587950600,11.09095068359375,-0.164215087890625,0.9091339111328125,-0.2049407958984375
1774159859607940600,11.110940673828125,-0.13812255859375,0.657257080078125,-0.2441558837890625
1774159859627931600,11.130931640625,-0.07293701171875,0.549835205078125,-0.235198974609375
1774159859647921700,11.150921630859376,-0.0127105712890625,0.605926513671875,-0.16259765625
1774159859667911400,11.170911376953125,-0.08892822265625,0.7985992431640625,-0.1502838134765625
1774159859687902700,11.19090283203125,-0.20391845703125,1.0597686767578125,-0.15960693359375
1774159859707892700,11.210892822265626,-0.2710113525390625,1.1208953857421875,-0.1051177978515625
1774159859727882500,11.230882568359375,-0.1973724365234375,1.1108551025390625,-0.0460968017578125
1774159859747873500,11.25087353515625,-0.1986846923828125,1.048095703125,-0.1269989013671875
1774159859767863600,11.270863525390626,-0.0694580078125,1.0225982666015625,-0.1941070556640625
1774159859787853600,11.290853515625,0.0557708740234375,0.9339599609375,-0.1438446044921875
1774159859807843600,11.310843505859374,0.1890411376953125,0.8915252685546875,-0.0771484375
1774159859827834600,11.330834716796875,0.0716705322265625,0.9483184814453125,-0.1158905029296875
1774159859847824600,11.35082470703125,0.0774383544921875,0.88568115234375,-0.0994110107421875
1774159859867814700,11.370814697265626,-0.0220184326171875,0.9345855712890625,-0.0919342041015625
1774159859887805700,11.3908056640625,0.0509033203125,0.9405670166015625,-0.059814453125
1774159859907795700,11.410795654296875,0.0658111572265625,0.9264068603515625,-0.0682220458984375
1774159859927785700,11.43078564453125,0.0447998046875,0.8926849365234375,-0.1096954345703125
1774159859947776500,11.450776611328125,0.022705078125,0.848785400390625,-0.159271240234375
1774159859967766500,11.4707666015625,0.0260467529296875,0.8786773681640625,-0.1512603759765625
1774159859987756500,11.490756591796876,0.019287109375,0.928314208984375,-0.151123046875
1774159860007747600,11.51074755859375,0.072662353515625,0.8369903564453125,-0.170989990234375
1774159860027737600,11.530737548828125,0.082183837890625,0.833038330078125,-0.1546173095703125
1774159860047727600,11.5507275390625,0.077117919921875,0.83648681640625,-0.070953369140625
1774159860067717600,11.570717529296875,-0.082550048828125,0.97332763671875,-0.143157958984375
1774159860087708700,11.590708740234374,-0.1907806396484375,1.074951171875,-0.22406005859375
1774159860107698700,11.61069873046875,-0.110504150390625,1.1748504638671875,-0.2224273681640625
1774159860127688700,11.630688720703125,-0.0041656494140625,1.319305419921875,-0.1615142822265625
1774159860147679500,11.650679443359374,-0.1373748779296875,1.6016693115234375,-0.0372772216796875
1774159860167669500,11.67066943359375,-0.2230377197265625,1.4090576171875,0.004486083984375
1774159860187659500,11.690659423828125,-0.1819610595703125,0.976898193359375,-0.0832977294921875
1774159860207650600,11.710650634765624,-0.17474365234375,0.7376556396484375,-0.115875244140625
1774159860227640600,11.730640625,-0.1015777587890625,0.6041259765625,-0.008514404296875
1774159860247630600,11.750630615234375,-0.1146697998046875,0.7319488525390625,0.123565673828125
1774159860267621600,11.77062158203125,-0.1888885498046875,0.994415283203125,0.1005706787109375
1774159860287609300,11.790609375,-0.264617919921875,1.20428466796875,0.040252685546875
1774159860307599400,11.810599365234374,-0.2675628662109375,1.3182830810546875,0.0036468505859375
1774159860327589400,11.83058935546875,-0.22100830078125,1.243377685546875,-0.0460662841796875
1774159860347580200,11.850580078125,-0.18109130859375,1.087188720703125,-0.141815185546875
1774159860367570200,11.870570068359376,-0.148529052734375,1.0087890625,-0.145721435546875
1774159860387560200,11.890560302734375,-0.0227203369140625,0.9481658935546875,-0.106689453125
1774159860407551200,11.91055126953125,0.0271148681640625,0.9300689697265625,-0.022491455078125
1774159860427541200,11.930541259765626,-0.0428619384765625,0.89227294921875,0.0139923095703125
1774159860447531300,11.95053125,-0.1126861572265625,0.822418212890625,0.0162353515625
1774159860467522000,11.97052197265625,-0.106201171875,0.762054443359375,0.034454345703125
1774159860487512000,11.990511962890626,-0.0974273681640625,0.7240753173828125,0.049530029296875
1774159860507502300,12.01050244140625,-0.0367431640625,0.706085205078125,0.0669708251953125
1774159860527493000,12.0304931640625,0.0364227294921875,0.7387237548828125,0.06195068359375
1774159860547483100,12.050483154296876,-0.0169219970703125,0.778778076171875,0.0245361328125
1774159860567473200,12.07047314453125,-0.1050262451171875,0.812774658203125,-0.018280029296875
1774159860587463200,12.090463134765624,-0.12677001953125,0.860687255859375,-0.0145111083984375
1774159860607454200,12.1104541015625,-0.1654205322265625,0.928314208984375,-0.005584716796875
1774159860627444200,12.1304443359375,-0.2008209228515625,0.962188720703125,0.0594482421875
1774159860647434200,12.150434326171874,-0.217742919921875,1.03448486328125,0.1087646484375
1774159860667425300,12.17042529296875,-0.2727508544921875,1.20660400390625,0.14501953125
1774159860687415000,12.1904150390625,-0.16534423828125,1.370635986328125,0.0660552978515625
1774159860707405300,12.2104052734375,0.044281005859375,1.5309600830078125,-0.111846923828125
1774159860727396400,12.230396240234375,-0.0667724609375,1.8777008056640625,-0.3876190185546875
1774159860747386000,12.25038623046875,-0.1602325439453125,2.1908111572265625,-0.4755096435546875
1774159860767376100,12.270376220703126,-0.280670166015625,1.520477294921875,-0.118438720703125
1774159860787366100,12.2903662109375,-0.2707366943359375,0.88385009765625,-0.0675811767578125
1774159860807357200,12.310357177734375,-0.14044189453125,0.382110595703125,-0.20928955078125
1774159860827347200,12.33034716796875,-0.1400146484375,0.159149169921875,-0.366424560546875
1774159860847337200,12.350337158203125,-0.1139373779296875,0.222900390625,-0.4132232666015625
1774159860867328300,12.370328369140625,-0.073455810546875,0.4766082763671875,-0.230438232421875
1774159860887318000,12.390318115234376,-0.1179656982421875,0.78070068359375,-0.13995361328125
1774159860907308000,12.41030810546875,-0.1929168701171875,1.0910797119140625,-0.072174072265625
1774159860927299300,12.43029931640625,-0.1715545654296875,1.346221923828125,-0.0406341552734375
1774159860947289300,12.450289306640625,-0.1560516357421875,1.301513671875,-0.1400299072265625
1774159860967279000,12.470279052734375,-0.151123046875,1.1593017578125,-0.1770477294921875
1774159860987269000,12.49026904296875,-0.057220458984375,1.0160369873046875,-0.1451416015625
1774159861007260400,12.510260498046875,-0.0209503173828125,0.9333343505859375,-0.1480255126953125
1774159861027250200,12.530250244140625,-0.0451202392578125,0.89556884765625,-0.06072998046875
1774159861047240200,12.550240234375,-0.055084228515625,0.8882904052734375,-0.0216064453125
1774159861067231200,12.570231201171875,-0.0373077392578125,0.847625732421875,-0.02349853515625
1774159861087221200,12.59022119140625,0.0081329345703125,0.8250732421875,-0.0187835693359375
1774159861107211000,12.6102109375,-0.008148193359375,0.8084869384765625,-0.1001129150390625
1774159861127201300,12.630201171875,-0.0522003173828125,0.79595947265625,-0.002838134765625
1774159861147192300,12.6501923828125,-0.03033447265625,0.8487091064453125,-0.0669403076171875
1774159861167182000,12.67018212890625,-0.004547119140625,0.8696746826171875,-0.133880615234375
1774159861187172000,12.690172119140625,0.0499267578125,0.8845062255859375,0.014373779296875
1774159861207163400,12.710163330078124,0.0023345947265625,0.83978271484375,-0.01690673828125
1774159861227153400,12.7301533203125,-0.0561676025390625,0.85601806640625,-0.1143341064453125
1774159861247143200,12.75014306640625,-0.1466827392578125,0.897430419921875,-0.1268157958984375
1774159861267134200,12.77013427734375,-0.067626953125,0.995330810546875,-0.1341400146484375
1774159861287125500,12.79012548828125,0.0081024169921875,1.1433868408203125,-0.1451263427734375
1774159861307115500,12.810115478515625,-0.0102081298828125,1.3033294677734375,-0.0158233642578125
1774159861327105500,12.83010546875,-0.273681640625,1.246429443359375,0.1393890380859375
1774159861347096300,12.850096435546876,-0.3740234375,1.4057769775390625,0.0936126708984375
1774159861367086300,12.87008642578125,-0.2529296875,1.5222320556640625,0.0712738037109375
1774159861387076600,12.89007666015625,-0.2502288818359375,1.28314208984375,-0.0252685546875
1774159861407067600,12.910067626953126,-0.2395477294921875,0.9277496337890625,-0.07989501953125
1774159861427057400,12.930057373046875,-0.1916351318359375,0.715972900390625,0.0190582275390625
1774159861447047400,12.95004736328125,-0.3026275634765625,0.6059722900390625,0.05267333984375
1774159861467037400,12.970037353515625,-0.33172607421875,0.84576416015625,0.07958984375
1774159861487028500,12.990028564453125,-0.2408294677734375,1.141937255859375,0.1060638427734375
1774159861507018500,13.0100185546875,-0.1881866455078125,1.3001251220703125,-0.1572418212890625
1774159861527008500,13.030008544921875,-0.2635345458984375,1.242919921875,-0.195831298828125
1774159861546999600,13.04999951171875,-0.23858642578125,1.075958251953125,-0.0608978271484375
1774159861566989300,13.0699892578125,-0.1120758056640625,0.9719390869140625,-0.0521697998046875
1774159861586979600,13.0899794921875,-0.0682373046875,0.9355621337890625,-0.05377197265625
1774159861606970600,13.109970703125,-0.1010894775390625,0.8970489501953125,-0.02520751953125
1774159861626960600,13.129960693359376,-0.1839141845703125,0.8571014404296875,0.000396728515625
1774159861646950400,13.149950439453125,-0.1344146728515625,0.84033203125,0.0027923583984375
1774159861666940400,13.1699404296875,-0.1389923095703125,0.789306640625,0.0404205322265625
1774159861686931700,13.189931640625,-0.1387481689453125,0.7517852783203125,0.0631256103515625
1774159861706921500,13.20992138671875,-0.0507354736328125,0.75048828125,0.0658721923828125
1774159861726911500,13.229911376953124,-0.0296173095703125,0.771820068359375,0.0650177001953125
1774159861746902500,13.249902587890626,-0.03973388671875,0.7626190185546875,0.069305419921875
1774159861766892500,13.269892578125,-0.07818603515625,0.77044677734375,0.0661468505859375
1774159861786882300,13.28988232421875,-0.080780029296875,0.7623138427734375,0.043853759765625
1774159861806872600,13.30987255859375,-0.0605926513671875,0.780059814453125,0.04742431640625
1774159861826863600,13.329863525390625,-0.1597442626953125,0.8061370849609375,0.0112762451171875
1774159861846853400,13.349853271484376,-0.084075927734375,1.0672149658203125,0.044403076171875
1774159861866843400,13.369843505859375,-0.063140869140625,1.3453826904296875,0.121490478515625
1774159861886834700,13.389834716796875,-0.0433502197265625,1.395721435546875,-0.021148681640625
1774159861906824700,13.40982470703125,-0.0445098876953125,1.4037017822265625,-0.133575439453125
1774159861926814500,13.429814453125,-0.2158966064453125,1.4600067138671875,-0.2276763916015625
1774159861946804500,13.449804443359374,-0.132293701171875,1.56005859375,-0.2375030517578125
1774159861966795500,13.46979541015625,-0.25286865234375,1.3306427001953125,-0.261016845703125
1774159861986785500,13.48978564453125,-0.163604736328125,0.988983154296875,-0.42938232421875
1774159862006775600,13.509775634765624,-0.0396270751953125,0.8347625732421875,-0.4638214111328125
1774159862026766600,13.5297666015625,-0.0547332763671875,0.92791748046875,-0.2904052734375
1774159862046756600,13.549756591796875,-0.206146240234375,0.8991546630859375,-0.266082763671875
1774159862066746400,13.569746337890624,-0.1648101806640625,1.0018157958984375,-0.1322479248046875
1774159862086736400,13.589736328125,-0.1950836181640625,1.023223876953125,-0.0464324951171875
1774159862106727700,13.609727783203125,-0.118560791015625,0.96844482421875,-0.0059661865234375
1774159862126717400,13.629717529296874,-0.0697784423828125,0.8627166748046875,-0.058349609375
1774159862146707500,13.64970751953125,-0.085205078125,0.8346099853515625,-0.0442352294921875
1774159862166698500,13.669698486328125,-0.0758056640625,0.8496246337890625,-0.0232086181640625
1774159862186688500,13.6896884765625,-0.0609283447265625,0.8641510009765625,-0.0307464599609375
1774159862206678500,13.709678466796875,-0.00677490234375,0.8535003662109375,-0.0557861328125
1774159862226668500,13.72966845703125,-0.000152587890625,0.8671722412109375,-0.0535430908203125
1774159862246659600,13.74965966796875,-0.02813720703125,0.9361419677734375,0.0035858154296875
1774159862266649600,13.769649658203125,-0.02996826171875,0.8933563232421875,-0.075531005859375
1774159862286638600,13.789638671875,-0.0154876708984375,0.9467010498046875,-0.0602569580078125
1774159862306629400,13.80962939453125,-0.0006103515625,0.9295654296875,-0.058074951171875
1774159862326619400,13.829619384765625,-0.00543212890625,0.9454345703125,-0.0419921875
1774159862346609400,13.849609375,0.01629638671875,0.9365081787109375,-0.0541839599609375
1774159862366599400,13.869599365234375,0.0092315673828125,0.923919677734375,-0.0411834716796875
1774159862386590500,13.889590576171875,-0.0203704833984375,0.906707763671875,-0.058868408203125
1774159862406580500,13.90958056640625,-0.0183563232421875,0.927001953125,-0.0669708251953125
1774159862426570500,13.929570556640625,-0.0167236328125,0.9823150634765625,-0.1062164306640625
1774159862446561300,13.949561279296875,-0.0260772705078125,1.0043487548828125,-0.14056396484375
1774159862466551300,13.96955126953125,-0.0246734619140625,1.0382232666015625,-0.1242523193359375
1774159862486541300,13.989541259765625,-0.190643310546875,1.1702880859375,-0.0901641845703125
1774159862506531600,14.009531494140624,-0.2974853515625,1.424224853515625,0.00299072265625
1774159862526522400,14.0295224609375,-0.2989501953125,1.504913330078125,0.0294647216796875
1774159862546512400,14.049512451171875,-0.25347900390625,1.2815093994140625,-0.0330963134765625
1774159862566502400,14.06950244140625,-0.2006683349609375,0.933197021484375,0.0036773681640625
1774159862586493400,14.089493408203126,-0.1234893798828125,0.7537078857421875,-0.0014495849609375
1774159862606483500,14.1094833984375,-0.26318359375,0.6928863525390625,0.034149169921875
1774159862626473500,14.129473388671874,-0.264617919921875,0.832489013671875,0.0476226806640625
1774159862646463500,14.14946337890625,-0.1573944091796875,0.9631805419921875,0.038177490234375
1774159862666454300,14.169454345703125,-0.22589111328125,1.1092681884765625,-0.0346527099609375
1774159862686444300,14.1894443359375,-0.2266387939453125,1.051483154296875,-0.032958984375
1774159862706434600,14.2094345703125,-0.233734130859375,1.0390625,-0.018585205078125
1774159862726425300,14.22942529296875,-0.21484375,1.0218658447265625,-0.01824951171875
1774159862746415400,14.249415283203126,-0.232666015625,0.974456787109375,0.010040283203125
1774159862766405400,14.2694052734375,-0.132781982421875,0.980926513671875,-0.000732421875
1774159862786395400,14.2893955078125,-0.1007537841796875,0.9309539794921875,0.0076751708984375
1774159862806386400,14.309386474609376,-0.146942138671875,0.884368896484375,0.0027618408203125
1774159862826376400,14.32937646484375,-0.1759796142578125,0.789337158203125,0.0208892822265625
1774159862846366500,14.349366455078124,-0.1229248046875,0.8336944580078125,0.0351715087890625
1774159862866357200,14.369357177734376,-0.1163787841796875,0.8297576904296875,0.068634033203125
1774159862886347300,14.38934716796875,-0.0703125,0.8097991943359375,0.113555908203125
1774159862906337500,14.409337646484374,-0.039581298828125,0.842376708984375,0.1257781982421875
1774159862926327600,14.42932763671875,-0.056396484375,0.7628936767578125,0.099822998046875
1774159862946318300,14.449318359375,-0.0391998291015625,0.7795257568359375,0.1000518798828125
1774159862966308400,14.469308349609374,-0.0274658203125,0.787506103515625,0.1031341552734375
1774159862986298400,14.48929833984375,-0.0548553466796875,0.838958740234375,0.08489990234375
1774159863006289400,14.509289306640625,-0.062835693359375,0.979156494140625,0.0687103271484375
1774159863026279400,14.529279541015624,-0.1055908203125,0.978729248046875,0.0537109375
1774159863046269400,14.54926953125,-0.058258056640625,1.2304534912109375,0.0320892333984375
1774159863066259500,14.569259521484375,-0.038116455078125,1.4225311279296875,-0.01239013671875
1774159863086250200,14.589250244140626,-0.0821380615234375,1.6439056396484375,-0.126190185546875
1774159863106240300,14.609240234375,-0.19091796875,2.08355712890625,-0.27740478515625
1774159863126230500,14.62923046875,-0.2563018798828125,2.19012451171875,-0.2090911865234375
1774159863146220500,14.649220458984376,-0.2452239990234375,1.1841278076171875,-0.10443115234375
1774159863166211300,14.66921142578125,-0.2961883544921875,0.637847900390625,-0.166778564453125
1774159863186201300,14.689201416015624,-0.256256103515625,0.3961639404296875,-0.3157196044921875
1774159863206191400,14.70919140625,-0.20166015625,0.248260498046875,-0.4291229248046875
1774159863226182400,14.729182373046875,-0.11468505859375,0.455596923828125,-0.3867645263671875
1774159863246172400,14.74917236328125,-0.0848388671875,0.8236541748046875,-0.2220916748046875
1774159863266162400,14.769162353515625,-0.138946533203125,1.018585205078125,-0.1090545654296875
1774159863286153000,14.789153076171875,-0.1142578125,1.1773223876953125,0.008270263671875
1774159863306144000,14.80914404296875,-0.0787200927734375,1.09185791015625,-0.0160675048828125
1774159863326134300,14.82913427734375,-0.1420440673828125,1.1010284423828125,-0.027496337890625
1774159863346124300,14.849124267578125,-0.0833282470703125,1.003082275390625,0.0072784423828125
1774159863366115000,14.869114990234374,-0.1030426025390625,0.9841156005859375,-0.052764892578125
1774159863386105000,14.88910498046875,-0.09796142578125,0.9395904541015625,-0.092315673828125
1774159863406095000,14.90909521484375,-0.0782012939453125,0.9323883056640625,-0.0555572509765625
1774159863426085000,14.929085205078126,-0.078399658203125,0.843353271484375,-0.04705810546875
1774159863446076200,14.949076171875,-0.067474365234375,0.9073944091796875,-0.037353515625
1774159863466066200,14.969066162109375,0.0147705078125,0.9064178466796875,-0.028472900390625
1774159863486056200,14.98905615234375,0.0410308837890625,0.895111083984375,-0.0069427490234375
1774159863506047000,15.009046875,0.0522613525390625,0.8745574951171875,-0.0315704345703125
1774159863526037000,15.029037109375,0.006195068359375,0.85382080078125,-0.0861968994140625
1774159863546027300,15.04902734375,-0.0148468017578125,0.823211669921875,-0.067626953125
1774159863566017000,15.06901708984375,-0.015838623046875,0.83465576171875,-0.00079345703125
1774159863586008000,15.089008056640624,-0.0406494140625,0.8465118408203125,-0.0122528076171875
1774159863605998000,15.108998046875,-0.0779266357421875,0.9260711669921875,-0.04345703125
1774159863625988000,15.128988037109375,-0.11859130859375,1.0823974609375,0.002777099609375
1774159863645978000,15.14897802734375,-0.133819580078125,1.226654052734375,-0.0417022705078125
1774159863665969200,15.16896923828125,-0.0023040771484375,1.2854461669921875,-0.0173492431640625
1774159863685959200,15.188959228515625,0.1099700927734375,1.2616424560546875,0.11480712890625
1774159863705949200,15.20894921875,-0.0311737060546875,1.1702423095703125,0.2398223876953125
1774159863725940000,15.22893994140625,-0.3452301025390625,1.2296905517578125,0.2915191650390625
1774159863745930200,15.24893017578125,-0.132293701171875,1.331512451171875,0.181427001953125
1774159863765920300,15.268920166015626,-0.15045166015625,1.1074981689453125,-0.1011199951171875
1774159863785910000,15.288909912109375,-0.2105255126953125,0.9453277587890625,0.0571746826171875
1774159863805901000,15.308901123046875,-0.3505859375,0.662200927734375,-0.0593109130859375
1774159863825891000,15.32889111328125,-0.1968841552734375,0.6334228515625,0.0199737548828125
1774159863845881000,15.348881103515625,-0.2006683349609375,0.9021453857421875,0.246612548828125
1774159863865872100,15.3688720703125,-0.2884674072265625,0.94696044921875,-0.0297088623046875
1774159863885862100,15.388862060546876,-0.13494873046875,1.12469482421875,0.0198211669921875
1774159863905852200,15.40885205078125,0.0077056884765625,1.1590118408203125,-0.018310546875
1774159863925842000,15.428842041015624,-0.1767120361328125,1.13360595703125,-0.1240386962890625
1774159863945833200,15.448833251953126,-0.269927978515625,1.0969696044921875,-0.1068267822265625
1774159863965823200,15.4688232421875,-0.2394866943359375,1.03704833984375,-0.04827880859375
1774159863985813200,15.488813232421874,-0.1395416259765625,1.0074615478515625,0.061492919921875
1774159864005803000,15.508802978515625,-0.1456298828125,0.9649658203125,0.11981201171875
1774159864025794000,15.5287939453125,-0.1460418701171875,0.9266357421875,0.04986572265625
1774159864045784000,15.5487841796875,-0.1081390380859375,0.86126708984375,0.013946533203125
1774159864065774000,15.568774169921875,-0.0881195068359375,0.7813568115234375,0.024993896484375
1774159864085765000,15.58876513671875,-0.0998687744140625,0.7241363525390625,0.0658111572265625
1774159864105755100,15.608755126953126,-0.112274169921875,0.75128173828125,0.0565948486328125
1774159864125745200,15.6287451171875,-0.0761260986328125,0.7303009033203125,0.053009033203125
1774159864145735000,15.64873486328125,-0.1160430908203125,0.7784423828125,0.0125732421875
1774159864165726200,15.668726318359376,-0.115081787109375,0.78466796875,0.0132293701171875
1774159864185716200,15.68871630859375,-0.082855224609375,0.7388916015625,0.0207061767578125
1774159864205706200,15.708706298828124,-0.1063079833984375,0.854400634765625,0.0564117431640625
1774159864225697000,15.728697021484376,-0.1610260009765625,0.9976654052734375,0.152587890625
1774159864245687000,15.74868701171875,-0.15765380859375,1.0798187255859375,0.1532135009765625
1774159864265677300,15.76867724609375,-0.067626953125,1.2100372314453125,0.1480865478515625
1774159864285667000,15.7886669921875,0.0195770263671875,1.3446807861328125,-0.0142974853515625
1774159864305658000,15.808658203125,0.0558319091796875,1.4883270263671875,-0.132293701171875
1774159864325648400,15.8286484375,-0.252288818359375,1.7786865234375,-0.21966552734375
1774159864345638400,15.848638427734375,-0.1501617431640625,2.0594940185546875,-0.353973388671875
1774159864365628200,15.868628173828125,-0.5311126708984375,1.658203125,-0.3651580810546875
1774159864385619200,15.888619140625,-0.159576416015625,0.805755615234375,-0.161407470703125
1774159864405609200,15.908609130859375,-0.161865234375,0.461029052734375,-0.287841796875
1774159864425599200,15.92859912109375,-0.1881866455078125,0.5467987060546875,-0.31170654296875
1774159864445590300,15.94859033203125,-0.0608367919921875,0.63360595703125,-0.2056732177734375
1774159864465580300,15.968580322265625,-0.0977630615234375,0.642364501953125,-0.1161041259765625
1774159864485570300,15.9885703125,-0.2280426025390625,0.69732666015625,-0.0363006591796875
1774159864505560000,16.00856005859375,-0.2789306640625,0.7618865966796875,0.03973388671875
1774159864525551400,16.02855126953125,-0.195526123046875,0.879638671875,0.035308837890625
1774159864545541400,16.048541259765624,-0.077850341796875,1.0455474853515625,-0.0370941162109375
1774159864565531100,16.06853125,-0.0418701171875,1.1092529296875,-0.1170501708984375
1774159864585521200,16.088521240234375,-0.125762939453125,1.0943756103515625,-0.20758056640625
1774159864605512200,16.10851220703125,-0.1524810791015625,1.037811279296875,-0.215240478515625
1774159864625502200,16.128502197265625,-0.13275146484375,0.991302490234375,-0.226837158203125
1774159864645492200,16.1484921875,-0.1314849853515625,0.954833984375,-0.1658782958984375
1774159864665483300,16.168483154296876,-0.1546630859375,0.91729736328125,-0.1820831298828125
1774159864685473300,16.188473388671873,-0.1392059326171875,0.951385498046875,-0.1647491455078125
1774159864705463300,16.20846337890625,-0.1146697998046875,0.9297332763671875,-0.142730712890625
1774159864725453000,16.228453125,-0.088287353515625,0.9261474609375,-0.0750579833984375
1774159864745444400,16.2484443359375,-0.075286865234375,0.946197509765625,-0.046417236328125
1774159864765434400,16.268434326171874,-0.065155029296875,0.948822021484375,-0.0475921630859375
1774159864785424100,16.288424072265624,-0.1051483154296875,0.9428558349609375,-0.0205841064453125
1774159864805414100,16.3084140625,-0.1326446533203125,0.9176483154296875,0.009613037109375
1774159864825405200,16.3284052734375,-0.13385009765625,0.92620849609375,0.0049591064453125
1774159864845395200,16.348395263671875,-0.1229095458984375,0.939483642578125,0.0141143798828125
1774159864865385200,16.36838525390625,-0.0911102294921875,0.9592742919921875,0.02117919921875
1774159864885376300,16.388376220703126,-0.0414276123046875,0.9549560546875,0.055816650390625
1774159864905366300,16.4083662109375,-0.0114898681640625,0.9485015869140625,0.085540771484375
1774159864925356000,16.42835595703125,-0.016632080078125,0.9543914794921875,0.09552001953125
1774159864945346000,16.448345947265626,-0.080596923828125,0.96026611328125,0.1031036376953125
1774159864965337300,16.46833740234375,-0.09466552734375,0.9602813720703125,0.1035614013671875
1774159864985327400,16.488327392578125,-0.1061553955078125,0.962615966796875,0.118804931640625
1774159865005317000,16.508317138671874,-0.218780517578125,1.1118316650390625,0.09942626953125
1774159865025307100,16.52830712890625,-0.3546295166015625,1.277191162109375,0.0910491943359375
1774159865045298400,16.54829833984375,-0.36920166015625,1.2640838623046875,0.1089324951171875
1774159865065288200,16.5682880859375,-0.362518310546875,1.0088348388671875,0.1277923583984375
1774159865085278200,16.5882783203125,-0.3593902587890625,0.788604736328125,0.09771728515625
1774159865105268200,16.608268310546876,-0.4026641845703125,0.9458160400390625,0.07867431640625
1774159865125259300,16.62825927734375,-0.481292724609375,1.1477508544921875,0.0221405029296875
1774159865145249000,16.6482490234375,-0.4666748046875,1.318450927734375,-0.0337066650390625
1774159865165239300,16.6682392578125,-0.395050048828125,1.4593505859375,-0.0866241455078125
1774159865185230300,16.688230224609374,-0.2261199951171875,1.296142578125,-0.0315704345703125
1774159865205220000,16.70822021484375,-0.1353302001953125,1.1231231689453125,0.0129547119140625
1774159865225210000,16.728210205078124,-0.2268524169921875,0.9959259033203125,-0.0115814208984375
1774159865245200100,16.7482001953125,-0.27532958984375,0.8684539794921875,-0.07257080078125
1774159865265191400,16.76819140625,-0.192413330078125,0.78924560546875,-0.0726470947265625
1774159865285181400,16.788181396484376,-0.0976409912109375,0.7353515625,-0.034912109375
1774159865305171500,16.80817138671875,-0.0731658935546875,0.67022705078125,0.0113983154296875
1774159865325161500,16.828161376953126,-0.1020660400390625,0.6183013916015625,0.0299072265625
1774159865345152300,16.84815234375,-0.081756591796875,0.61358642578125,0.026214599609375
1774159865365142500,16.868142578125,-0.069671630859375,0.641082763671875,0.044586181640625
1774159865385132500,16.888132568359374,-0.0673828125,0.6746368408203125,0.0727691650390625
1774159865405123600,16.90812353515625,-0.0828704833984375,0.7161407470703125,0.1056976318359375
1774159865425113300,16.92811328125,-0.080810546875,0.7891845703125,0.1164398193359375
1774159865445103400,16.948103271484374,-0.0791778564453125,0.8860321044921875,0.1055908203125
1774159865465093400,16.96809326171875,-0.1026611328125,0.9727020263671875,0.082550048828125
1774159865485084400,16.98808447265625,-0.1300506591796875,1.0093994140625,0.0652618408203125
1774159865505074400,17.008074462890626,-0.109619140625,1.0487823486328125,0.057373046875
1774159865525064400,17.028064453125,-0.073883056640625,1.1856231689453125,0.0429229736328125
1774159865545054500,17.048054443359376,-0.130401611328125,1.4340057373046875,0.0261383056640625
1774159865565045200,17.068045166015626,-0.0336761474609375,1.686859130859375,0.004730224609375
1774159865585035500,17.088035400390623,-0.336700439453125,1.8668212890625,-0.1458892822265625
1774159865605025500,17.108025634765625,-0.399993896484375,1.8196868896484375,-0.2364654541015625
1774159865625015600,17.128015625,-0.2562103271484375,1.294403076171875,-0.1365814208984375
1774159865645006300,17.14800634765625,-0.298583984375,0.8595123291015625,-0.3182220458984375
1774159865664996400,17.167996337890624,-0.1798248291015625,0.68914794921875,-0.4813232421875
1774159865684986400,17.187986328125,-0.1774139404296875,0.6632080078125,-0.404876708984375
1774159865704977400,17.207977294921875,-0.0809783935546875,0.75286865234375,-0.245361328125
1774159865724967400,17.227967529296876,-0.0902557373046875,0.797088623046875,-0.0640411376953125
1774159865744957400,17.24795751953125,-0.0699310302734375,0.8278656005859375,-0.0210113525390625
1774159865764947500,17.267947509765627,-0.1181793212890625,0.9129791259765625,0.0107879638671875
1774159865784938500,17.2879384765625,-0.117095947265625,0.9467010498046875,0.07220458984375
1774159865804928500,17.307928466796874,-0.1341400146484375,0.950836181640625,0.0570526123046875
1774159865824918500,17.32791845703125,-0.167755126953125,0.941070556640625,-0.0375518798828125
1774159865844908500,17.347908447265624,-0.1515960693359375,0.93353271484375,-0.0413360595703125
1774159865864899300,17.3678994140625,-0.142822265625,0.9303131103515625,0.003143310546875
1774159865884889300,17.387889404296875,-0.1219329833984375,0.927825927734375,0.0236663818359375
1774159865904879600,17.407879638671876,-0.0859375,0.944427490234375,0.006103515625
1774159865924869600,17.42786962890625,-0.0308074951171875,0.9569549560546875,-0.007537841796875
1774159865944860400,17.4478603515625,-0.0139617919921875,0.9425048828125,0.00994873046875
1774159865964850400,17.467850341796876,-0.069305419921875,0.9203338623046875,0.021453857421875
1774159865984840400,17.48784033203125,-0.1073455810546875,0.906890869140625,0.0290069580078125
1774159866004831500,17.50783154296875,-0.0932159423828125,0.8993682861328125,0.057373046875
1774159866024821500,17.527821533203124,-0.076690673828125,0.91400146484375,0.07489013671875
1774159866044811500,17.5478115234375,-0.0710601806640625,0.93011474609375,0.06610107421875
1774159866064801500,17.567801513671874,-0.041473388671875,0.915863037109375,0.0437469482421875
1774159866084792300,17.587792236328124,-0.0235443115234375,0.9177703857421875,0.026153564453125
1774159866104782600,17.607782470703125,-0.01910400390625,0.92205810546875,0.0038604736328125
1774159866124772600,17.627772705078126,-0.0198974609375,0.9270172119140625,-0.018798828125
1774159866144762600,17.6477626953125,-0.0400390625,0.940948486328125,-0.0449371337890625
1774159866164753400,17.66775341796875,-0.0467681884765625,0.964752197265625,-0.0621795654296875
1774159866184743400,17.687743408203126,-0.0238800048828125,0.993743896484375,-0.03314208984375
1774159866204733400,17.7077333984375,0.0332183837890625,0.9809417724609375,0.0441131591796875
1774159866224723500,17.727723388671876,0.0252685546875,0.95770263671875,0.1109619140625
1774159866244714500,17.747714599609374,-0.157318115234375,1.040252685546875,0.102783203125
1774159866264704500,17.76770458984375,-0.3475494384765625,1.2528839111328125,0.1201171875
1774159866284694300,17.7876943359375,-0.25537109375,1.3036651611328125,0.1912078857421875
1774159866304684300,17.807684326171874,-0.28448486328125,1.078033447265625,0.1869049072265625
1774159866324675000,17.827675048828127,-0.310821533203125,0.895721435546875,0.1527099609375
1774159866344665000,17.8476650390625,-0.327545166015625,0.9382171630859375,0.1419219970703125
1774159866364655000,17.867655029296873,-0.4424285888671875,1.1090240478515625,0.0972442626953125
1774159866384646100,17.887646240234375,-0.4108734130859375,1.346588134765625,0.055145263671875
1774159866404636200,17.90763623046875,-0.16363525390625,1.498199462890625,-0.0098724365234375
1774159866424626200,17.927626220703125,-0.01556396484375,1.3341522216796875,-0.0338592529296875
1774159866444616200,17.9476162109375,-0.189422607421875,1.054656982421875,0.01422119140625
1774159866464607000,17.96760693359375,-0.220672607421875,0.94091796875,-0.035614013671875
1774159866484597200,17.98759716796875,-0.193084716796875,0.85833740234375,-0.0733489990234375
1774159866504587300,18.007587158203126,-0.160369873046875,0.75775146484375,-0.0697479248046875
1774159866524577000,18.027576904296875,-0.137451171875,0.7093658447265625,-0.0211639404296875
1774159866544568000,18.047568115234377,-0.09228515625,0.6527862548828125,0.0229644775390625
1774159866564558000,18.06755810546875,-0.06268310546875,0.6282196044921875,0.05224609375
1774159866584548000,18.087548095703124,-0.0532989501953125,0.619659423828125,0.0823974609375
1774159866604538000,18.1075380859375,-0.0669403076171875,0.6452484130859375,0.1083221435546875
1774159866624529200,18.127529052734374,-0.0636749267578125,0.693328857421875,0.113372802734375
1774159866644519200,18.147519287109375,-0.0760345458984375,0.764678955078125,0.121063232421875
1774159866664509200,18.16750927734375,-0.0944671630859375,0.8404083251953125,0.1265869140625
1774159866684499000,18.1874990234375,-0.11175537109375,0.9095458984375,0.1296234130859375
1774159866704490200,18.207490234375,-0.1678314208984375,0.97930908203125,0.1240386962890625
1774159866724480300,18.227480224609376,-0.1980438232421875,1.061981201171875,0.10064697265625
1774159866744470000,18.247469970703126,-0.162109375,1.1835174560546875,0.0850982666015625
1774159866764461000,18.2674609375,-0.0615997314453125,1.3638916015625,0.0731048583984375
1774159866784451000,18.287451171875,-0.069305419921875,1.5381927490234375,0.0023651123046875
1774159866804441000,18.307441162109374,-0.0557098388671875,1.6432647705078125,-0.1145782470703125
1774159866824431000,18.32743115234375,-0.1592559814453125,1.6226806640625,-0.137939453125
1774159866844422100,18.347422119140624,-0.170440673828125,1.494293212890625,-0.0873565673828125
1774159866864412200,18.367412109375,-0.2975006103515625,1.2346649169921875,-0.0582733154296875
1774159866884402000,18.38740185546875,-0.3629302978515625,0.9065399169921875,-0.141876220703125
1774159866904392000,18.407391845703124,-0.2561798095703125,0.7069549560546875,-0.2347259521484375
1774159866924383200,18.42738330078125,-0.1332550048828125,0.6440887451171875,-0.2665252685546875
1774159866944373200,18.447373291015627,-0.04583740234375,0.7539215087890625,-0.1964874267578125
1774159866964363000,18.467363037109376,-0.0570068359375,0.911102294921875,-0.0476837158203125
1774159866984353000,18.48735302734375,-0.06475830078125,0.9742584228515625,-0.0239105224609375
1774159867004344000,18.507343994140626,-0.2016448974609375,0.9901275634765625,-0.0110321044921875
1774159867024334000,18.527333984375,-0.213287353515625,0.94500732421875,-0.0472564697265625
1774159867044324000,18.547323974609377,-0.1834564208984375,0.906707763671875,-0.06768798828125
1774159867064314000,18.567314208984374,-0.1401519775390625,0.893463134765625,-0.0543365478515625
1774159867084305200,18.58730517578125,-0.1078643798828125,0.8883819580078125,-0.0408935546875
1774159867104295000,18.607294921875,-0.1190643310546875,0.896148681640625,-0.0470123291015625
1774159867124285000,18.627284912109374,-0.1153411865234375,0.9146881103515625,-0.0558319091796875
1774159867144275200,18.647275146484375,-0.0901336669921875,0.9181365966796875,-0.043365478515625
1774159867164266000,18.667265869140625,-0.07574462890625,0.9162445068359375,-0.0470123291015625
1774159867184256000,18.687256103515626,-0.086883544921875,0.891082763671875,-0.0444793701171875
1774159867204246000,18.70724609375,-0.096954345703125,0.89349365234375,-0.0493316650390625
1774159867224237300,18.7272373046875,-0.0670013427734375,0.9208984375,-0.041107177734375
1774159867244227000,18.74722705078125,-0.031494140625,0.9296875,0.00439453125
1774159867264217000,18.767217041015623,-0.00408935546875,0.94683837890625,0.010345458984375
1774159867284207000,18.78720703125,0.0100860595703125,0.9636993408203125,0.0226593017578125
1774159867304198100,18.8071982421875,0.0142669677734375,0.942138671875,0.058441162109375
1774159867324188200,18.827188232421875,-0.0321197509765625,0.91796875,0.0517578125
1774159867344178200,18.84717822265625,-0.049102783203125,0.91387939453125,0.034759521484375
1774159867364168200,18.867168212890626,-0.0657806396484375,0.8950347900390625,0.0299072265625
1774159867384159200,18.8871591796875,-0.10223388671875,0.9325714111328125,-0.014190673828125
1774159867404149200,18.907149169921876,-0.074493408203125,0.9815216064453125,0.0096588134765625
1774159867424139300,18.92713916015625,-0.0422210693359375,0.97265625,0.069091796875
1774159867444129300,18.94712939453125,-0.0584716796875,0.9101409912109375,0.105010986328125
1774159867464120000,18.9671201171875,-0.291046142578125,0.9627532958984375,0.088104248046875
1774159867484110000,18.987110107421874,-0.38153076171875,1.2272796630859375,0.176422119140625
1774159867504100400,19.007100341796875,-0.3740386962890625,1.3702392578125,0.2734832763671875
1774159867524090400,19.02709033203125,-0.3418426513671875,1.32464599609375,0.2425384521484375
1774159867544081200,19.0470810546875,-0.349090576171875,1.2908172607421875,0.1896514892578125
1774159867564071200,19.0670712890625,-0.42510986328125,1.34735107421875,0.1322479248046875
1774159867584061200,19.087061279296876,-0.274993896484375,1.37237548828125,-0.0159912109375
1774159867604051200,19.10705126953125,-0.01739501953125,1.4111480712890625,-0.0557403564453125
1774159867624042200,19.127042236328126,0.01953125,1.1491546630859375,0.018951416015625
1774159867644032300,19.1470322265625,-0.2611236572265625,0.808746337890625,0.0182342529296875
1774159867664022300,19.167022216796877,-0.2624053955078125,0.6871490478515625,-0.1049652099609375
1774159867684013000,19.187012939453126,-0.14715576171875,0.6424407958984375,-0.1187591552734375
1774159867704003300,19.20700341796875,-0.1062164306640625,0.614288330078125,-0.09332275390625
1774159867723993300,19.226993408203125,-0.119354248046875,0.6019439697265625,-0.05328369140625
1774159867743983400,19.2469833984375,-0.0809173583984375,0.59246826171875,0.00811767578125
1774159867763974100,19.26697412109375,-0.063720703125,0.5957489013671875,0.0418853759765625
1774159867783964200,19.286964111328125,-0.100555419921875,0.6513214111328125,0.0727386474609375
1774159867803954200,19.3069541015625,-0.1188812255859375,0.748565673828125,0.1009674072265625
1774159867823944400,19.3269443359375,-0.0927886962890625,0.878082275390625,0.1306304931640625
1774159867843935200,19.346935302734376,-0.0981597900390625,0.9830322265625,0.155975341796875
1774159867863925200,19.36692529296875,-0.07745361328125,1.0748443603515625,0.1855926513671875
1774159867883915300,19.386915283203123,-0.0626678466796875,1.110382080078125,0.1996917724609375
1774159867903905300,19.4069052734375,-0.09136962890625,1.1026458740234375,0.172149658203125
1774159867923896300,19.426896240234374,-0.1741180419921875,1.13250732421875,0.118377685546875
1774159867943886300,19.44688623046875,-0.1163330078125,1.2407379150390625,0.0642242431640625
1774159867963876400,19.46687646484375,-0.0853271484375,1.414337158203125,0.0418243408203125
1774159867983866000,19.4868662109375,0.0408477783203125,1.435089111328125,0.0487518310546875
1774159868003857200,19.506857177734375,0.00640869140625,1.391265869140625,0.0004119873046875
1774159868023847200,19.52684716796875,-0.274688720703125,1.4898834228515625,-0.1109771728515625
1774159868043837200,19.546837158203125,-0.2319183349609375,1.4835968017578125,-0.117889404296875
1774159868063827200,19.5668271484375,-0.22857666015625,1.1963043212890625,-0.0186004638671875
1774159868083818200,19.586818359375,-0.231109619140625,0.87615966796875,-0.0822906494140625
1774159868103808300,19.606808349609373,-0.205718994140625,0.57769775390625,-0.2006683349609375
1774159868123798000,19.626798095703126,-0.1500244140625,0.43450927734375,-0.250579833984375
1774159868143788300,19.646788330078124,-0.061370849609375,0.493682861328125,-0.272705078125
1774159868163779300,19.666779296875,-0.0467376708984375,0.6576080322265625,-0.276947021484375
1774159868183769300,19.686769287109374,-0.08648681640625,0.891326904296875,-0.2318878173828125
1774159868203759000,19.706759033203124,-0.10003662109375,1.060577392578125,-0.1130523681640625
1774159868223749000,19.7267490234375,-0.109161376953125,1.2291259765625,0.003387451171875
1774159868243740400,19.746740478515626,-0.1951904296875,1.2538299560546875,0.0609588623046875
1774159868263730200,19.766730224609375,-0.207672119140625,1.181304931640625,0.0095367431640625
1774159868283719700,19.7867197265625,-0.17462158203125,1.1230316162109375,-0.0493011474609375
1774159868303710700,19.806710693359374,-0.0895538330078125,0.98345947265625,-0.085479736328125
1774159868323700700,19.82670068359375,-0.1088104248046875,0.91839599609375,-0.03717041015625
1774159868343690800,19.846690673828125,-0.0972442626953125,0.8876800537109375,0.0222625732421875
1774159868363680500,19.866680419921874,-0.0569610595703125,0.8484039306640625,0.0732269287109375
1774159868383671800,19.886671875,0.006622314453125,0.8383331298828125,0.0576171875
1774159868403661800,19.906661865234376,0.0298309326171875,0.81048583984375,0.0243682861328125
1774159868423651600,19.926651611328126,-0.0084075927734375,0.7766571044921875,0.0023193359375
1774159868443641600,19.9466416015625,-0.0576171875,0.7715911865234375,0.0154266357421875
1774159868463633000,19.9666328125,-0.0599517822265625,0.778106689453125,0.0175323486328125
1774159868483623000,19.986622802734374,-0.0485687255859375,0.7979278564453125,0.023284912109375
1774159868503612700,20.00661279296875,-0.040374755859375,0.815582275390625,0.0411529541015625
1774159868523602700,20.026602783203124,-0.05169677734375,0.836578369140625,0.04669189453125
1774159868543593700,20.04659375,-0.117431640625,0.927093505859375,0.0154876708984375
1774159868563583500,20.06658349609375,-0.0910186767578125,1.02215576171875,-0.0315399169921875
1774159868583573800,20.08657373046875,-0.038787841796875,1.0087890625,0.00408935546875
1774159868603563800,20.106563720703125,-0.1676483154296875,0.9833984375,0.091278076171875
1774159868623554800,20.126554931640626,-0.3288726806640625,1.10845947265625,0.11077880859375
1774159868643544600,20.146544677734376,-0.45599365234375,1.2591400146484375,0.2260894775390625
1774159868663534600,20.16653466796875,-0.5001373291015625,1.379486083984375,0.343231201171875
1774159868683524600,20.186524658203126,-0.3444061279296875,1.334014892578125,0.2542572021484375
1774159868703515600,20.206515625,-0.115234375,1.2093658447265625,-0.0029449462890625
1774159868723505700,20.226505615234377,-0.0413055419921875,1.2726593017578125,-0.0639190673828125
1774159868743495700,20.24649560546875,0.103363037109375,1.2418365478515625,0.01214599609375
1774159868763485700,20.266485595703124,-0.097686767578125,1.1344757080078125,0.1606903076171875
1774159868783476700,20.286476806640625,-0.4009857177734375,1.0923614501953125,0.0654449462890625
1774159868803466800,20.306466796875,-0.3365478515625,1.0337066650390625,-0.003631591796875
1774159868823456800,20.326456787109375,-0.15875244140625,0.923797607421875,0.037261962890625
1774159868843446800,20.34644677734375,-0.0496978759765625,0.809967041015625,0.067413330078125
1774159868863437600,20.3664375,-0.0026702880859375,0.7012939453125,0.093231201171875
1774159868883427600,20.386427490234375,0.0150299072265625,0.6086883544921875,0.1097412109375
1774159868903417900,20.40641796875,-0.003173828125,0.54974365234375,0.1156768798828125
1774159868923408000,20.426407958984374,-0.0276947021484375,0.534271240234375,0.1234130859375
1774159868943398700,20.446398681640623,-0.0631103515625,0.5339813232421875,0.1138916015625
1774159868963388700,20.466388671875,-0.0460205078125,0.5677337646484375,0.106170654296875
1774159868983378700,20.486378662109374,-0.024688720703125,0.669677734375,0.096710205078125
1774159869003369700,20.50636962890625,-0.0609130859375,0.805084228515625,0.08526611328125
1774159869023359700,20.52635986328125,-0.0944671630859375,0.9667816162109375,0.0731658935546875
1774159869043349800,20.546349853515625,-0.110687255859375,1.15423583984375,0.08941650390625
1774159869063339800,20.56633984375,-0.0362548828125,1.339935302734375,0.1338348388671875
1774159869083330600,20.58633056640625,0.103851318359375,1.5406951904296875,0.1273956298828125
1774159869103320800,20.60632080078125,-0.027923583984375,1.7335205078125,0.0130767822265625
1774159869123310800,20.626310791015626,-0.1721954345703125,1.8452301025390625,-0.1201629638671875
1774159869143300900,20.64630078125,-0.299346923828125,1.8931884765625,-0.1307830810546875
1774159869163291600,20.666291748046874,-0.2079010009765625,1.4543609619140625,-0.02392578125
1774159869183281700,20.68628173828125,-0.3461456298828125,0.9690399169921875,-0.06427001953125
1774159869203271700,20.706271728515624,-0.2631683349609375,0.6153106689453125,-0.30950927734375
1774159869223262000,20.726261962890625,-0.115997314453125,0.5327301025390625,-0.4745635986328125
1774159869243252700,20.746252685546875,-0.12060546875,0.722930908203125,-0.4413604736328125
1774159869263242800,20.76624267578125,-0.1435699462890625,0.8828125,-0.1966552734375
1774159869283232500,20.786232421875,-0.127197265625,0.9238433837890625,0.0098114013671875
1774159869303222500,20.806222412109374,-0.13128662109375,0.99298095703125,0.0509033203125
1774159869323213600,20.826213623046876,-0.1404266357421875,1.0384063720703125,0.068603515625
1774159869343203600,20.84620361328125,-0.1361236572265625,1.018157958984375,0.0362548828125
1774159869363193600,20.866193603515626,-0.1517181396484375,0.9470977783203125,-0.00909423828125
1774159869383183400,20.886183349609375,-0.1315765380859375,0.8892822265625,0.0200042724609375
1774159869403174400,20.90617431640625,-0.08941650390625,0.8381500244140625,0.0802764892578125
1774159869423164700,20.92616455078125,-0.0493927001953125,0.8296661376953125,0.1055755615234375
1774159869443154700,20.94615478515625,0.01763916015625,0.8434906005859375,0.0581207275390625
1774159869463144400,20.96614453125,0.036346435546875,0.8525848388671875,0.058990478515625
1774159869483135500,20.986135498046874,0.025146484375,0.8206329345703125,0.0534210205078125
1774159869503125500,21.00612548828125,-0.0120697021484375,0.8090667724609375,0.0182342529296875
1774159869523115500,21.026115478515624,-0.0307159423828125,0.819793701171875,-0.0022735595703125
1774159869543105500,21.04610546875,0.0323333740234375,0.8302459716796875,0.02117919921875
1774159869563096600,21.0660966796875,0.0186004638671875,0.849822998046875,0.0371246337890625
1774159869583086600,21.086086669921876,-0.022491455078125,0.89031982421875,-0.009765625
1774159869603076400,21.106076416015625,-0.0292205810546875,0.914215087890625,-0.066314697265625
1774159869623066400,21.12606640625,-0.071929931640625,0.974365234375,-0.1007843017578125
1774159869643057700,21.1460576171875,-0.0942230224609375,1.0360260009765625,-0.1222076416015625
1774159869663047700,21.166047607421874,0.027313232421875,1.1140289306640625,-0.086822509765625
1774159869683037400,21.186037353515626,0.051788330078125,1.2230377197265625,0.0639495849609375
1774159869703027500,21.20602734375,-0.0326080322265625,1.1987457275390625,0.24237060546875
1774159869723018500,21.2260185546875,-0.2252960205078125,1.1959228515625,0.360748291015625
1774159869743008500,21.246008544921875,-0.3436279296875,1.1319427490234375,0.357879638671875
1774159869762998500,21.26599853515625,-0.44219970703125,1.1617584228515625,0.215118408203125
1774159869782989600,21.285989501953125,-0.492279052734375,1.2392578125,0.1840057373046875
1774159869802979600,21.3059794921875,-0.360015869140625,1.24615478515625,0.163665771484375
1774159869822969300,21.32596923828125,-0.363311767578125,1.238739013671875,0.0606842041015625
1774159869842959400,21.34595947265625,-0.4237060546875,1.16827392578125,0.00274658203125
1774159869862950700,21.36595068359375,-0.3370208740234375,1.14617919921875,-0.0057830810546875
1774159869882940400,21.3859404296875,0.0467529296875,1.1196441650390625,-0.0677642822265625
1774159869902930400,21.405930419921877,-0.154449462890625,1.0405426025390625,-0.0074462890625
1774159869922920400,21.42592041015625,-0.2241058349609375,0.841552734375,0.0433349609375
1774159869942911700,21.445911865234375,-0.228424072265625,0.7851104736328125,0.01568603515625
1774159869962901500,21.465901611328125,-0.1981658935546875,0.8025970458984375,-0.0012054443359375
1774159869982891500,21.4858916015625,-0.209320068359375,0.7834014892578125,0.030364990234375
1774159870002881500,21.505881591796875,-0.2186279296875,0.77447509765625,0.0431671142578125
1774159870022872300,21.525872314453125,-0.1905059814453125,0.7577972412109375,0.0500030517578125
1774159870042862300,21.5458623046875,-0.1603851318359375,0.7715911865234375,0.04278564453125
1774159870062852600,21.5658525390625,-0.186981201171875,0.7881011962890625,0.04254150390625
1774159870082842600,21.585842529296876,-0.1814727783203125,0.7750091552734375,0.062774658203125
1774159870102833400,21.60583349609375,-0.1512298583984375,0.7948760986328125,0.085205078125
1774159870122823400,21.625823486328127,-0.17266845703125,0.846649169921875,0.103973388671875
1774159870142813400,21.6458134765625,-0.1569671630859375,0.9155120849609375,0.1179046630859375
1774159870162803500,21.665803466796874,-0.1555328369140625,0.979644775390625,0.1247100830078125
1774159870182794500,21.68579443359375,-0.139556884765625,0.9993133544921875,0.123291015625
1774159870202784500,21.705784423828124,-0.1184844970703125,0.988677978515625,0.116943359375
1774159870222774500,21.7257744140625,-0.1142578125,0.9624786376953125,0.0868072509765625
1774159870242764500,21.7457646484375,-0.1315460205078125,0.9022674560546875,0.0564117431640625
1774159870262755300,21.76575537109375,-0.1194915771484375,0.876007080078125,0.0431365966796875
1774159870282746400,21.785746337890625,-0.10284423828125,0.9103546142578125,0.0501251220703125
1774159870302736400,21.805736328125,-0.0670623779296875,0.93939208984375,0.042205810546875
1774159870322727400,21.8257275390625,-0.062774658203125,0.9710235595703125,0.008453369140625
1774159870342717400,21.845717529296873,-0.0840911865234375,1.0056610107421875,-0.011505126953125
1774159870362707500,21.86570751953125,-0.17413330078125,1.113433837890625,-0.08843994140625
1774159870382697200,21.885697265625,-0.466033935546875,1.1617431640625,-0.1567230224609375
1774159870402688500,21.9056884765625,-0.2621612548828125,1.4029693603515625,-0.240203857421875
1774159870422678500,21.925678466796874,-0.088958740234375,1.592620849609375,-0.2216949462890625
1774159870442668500,21.94566845703125,-0.1987152099609375,1.4615936279296875,-0.10089111328125
1774159870462658300,21.965658203125,-0.2388763427734375,1.3443603515625,0.05816650390625
1774159870482649300,21.9856494140625,-0.145111083984375,1.2169342041015625,0.074859619140625
1774159870502639400,22.005639404296875,-0.051361083984375,1.0333251953125,0.0386199951171875
1774159870522629400,22.02562939453125,0.0252227783203125,0.8884124755859375,0.014129638671875
1774159870542619400,22.045619384765626,0.042999267578125,0.757293701171875,0.027252197265625
1774159870562610400,22.0656103515625,-0.0017547607421875,0.6851348876953125,0.0104217529296875
1774159870582600400,22.085600341796876,-0.05517578125,0.641510009765625,-0.027557373046875
1774159870602590200,22.105590087890626,-0.054595947265625,0.5878753662109375,-0.03924560546875
1774159870622580200,22.125580322265623,-0.038177490234375,0.600738525390625,-0.0393218994140625
1774159870642571500,22.145571533203125,0.0058441162109375,0.6580963134765625,-0.0500640869140625
1774159870662561500,22.1655615234375,0.065643310546875,0.751220703125,-0.0772857666015625
1774159870682551300,22.18555126953125,0.070648193359375,0.8288116455078125,-0.091033935546875
1774159870702541300,22.205541259765624,0.072998046875,0.89105224609375,-0.072174072265625
1774159870722532400,22.225532470703126,0.1099853515625,0.948455810546875,-0.03643798828125
1774159870742522400,22.2455224609375,0.0958709716796875,0.982330322265625,-0.0151824951171875
1774159870762512400,22.265512451171876,0.0213623046875,0.9958038330078125,-0.0298309326171875
1774159870782502400,22.28550244140625,-0.108154296875,1.0005035400390625,-0.072845458984375
1774159870802493400,22.305493408203127,-0.0712890625,1.1533355712890625,-0.09967041015625
1774159870822483200,22.325483154296876,0.1543731689453125,1.27386474609375,-0.0435638427734375
1774159870842473200,22.34547314453125,0.1928863525390625,1.268890380859375,0.0788726806640625
1774159870862464500,22.365464599609375,-0.154510498046875,1.44122314453125,0.192718505859375
1774159870882454300,22.385454345703124,-0.2061309814453125,1.4601287841796875,0.2538909912109375
1774159870902444300,22.4054443359375,-0.2711181640625,1.42877197265625,0.2242279052734375
1774159870922434300,22.425434326171874,-0.3914337158203125,1.4630126953125,0.128814697265625
1774159870942425600,22.445425537109376,-0.39666748046875,1.242401123046875,0.1453704833984375
1774159870962415400,22.465415283203125,-0.3603363037109375,0.945587158203125,0.1874237060546875
1774159870982405400,22.4854052734375,-0.2498626708984375,0.7573089599609375,0.191802978515625
1774159871002395400,22.5053955078125,-0.303375244140625,0.8179779052734375,0.243011474609375
1774159871022386400,22.525386474609373,-0.111114501953125,1.048187255859375,0.2477874755859375
1774159871042376200,22.545376220703126,0.073150634765625,1.26171875,0.1626129150390625
1774159871062366500,22.565366455078124,-0.176849365234375,1.142333984375,0.128265380859375
1774159871082356500,22.5853564453125,-0.3344268798828125,0.8729400634765625,0.09893798828125
1774159871102347300,22.60534716796875,-0.291961669921875,0.8132171630859375,0.0278167724609375
1774159871122337300,22.625337158203124,-0.2425537109375,0.72222900390625,0.0019989013671875
1774159871142327300,22.645327392578125,-0.221160888671875,0.637603759765625,0.0481414794921875
1774159871162317300,22.6653173828125,-0.146759033203125,0.5972442626953125,0.101226806640625
1774159871182308400,22.685308349609375,-0.2014923095703125,0.592803955078125,0.084075927734375
1774159871202298400,22.70529833984375,-0.1878204345703125,0.6179351806640625,0.0482635498046875
1774159871222288400,22.725288330078126,-0.1376800537109375,0.6928558349609375,0.0591583251953125
1774159871242278400,22.7452783203125,-0.132720947265625,0.7426605224609375,0.0777740478515625
1774159871262269400,22.76526953125,-0.1386566162109375,0.816436767578125,0.0862579345703125
1774159871282258700,22.7852587890625,-0.155242919921875,0.8983612060546875,0.0726470947265625
1774159871302248700,22.805248779296875,-0.10736083984375,0.97650146484375,0.068084716796875
1774159871322239700,22.82523974609375,-0.0138397216796875,1.0230255126953125,0.066314697265625
1774159871342229500,22.8452294921875,0.032470703125,1.078155517578125,0.015655517578125
1774159871362219500,22.865219482421875,0.0328369140625,1.156494140625,-0.05914306640625
1774159871382209500,22.88520947265625,-0.0269317626953125,1.173919677734375,-0.0938262939453125
1774159871402200600,22.90520068359375,-0.004791259765625,1.1806488037109375,-0.1061248779296875
1774159871422190600,22.925190673828126,0.04998779296875,1.2310638427734375,-0.1180419921875
1774159871442180600,22.9451806640625,0.12384033203125,1.2887725830078125,-0.12579345703125
1774159871462170600,22.965170654296877,0.14794921875,1.3975372314453125,-0.10589599609375
1774159871482161400,22.985161376953126,-0.1539306640625,1.4916839599609375,-0.048919677734375
1774159871502151700,23.005151611328124,-0.3252105712890625,1.5506591796875,-0.0476226806640625
1774159871522141700,23.0251416015625,-0.4333648681640625,1.5769805908203125,-0.0173492431640625
1774159871542131700,23.045131591796874,-0.3359375,1.39752197265625,-0.0292205810546875
1774159871562122500,23.06512255859375,-0.2618408203125,1.086578369140625,-0.0836944580078125
1774159871582112500,23.085112548828125,-0.2371673583984375,0.823974609375,-0.1505584716796875
1774159871602102500,23.1051025390625,-0.1789398193359375,0.702545166015625,-0.212371826171875
1774159871622092800,23.1250927734375,-0.157073974609375,0.6754150390625,-0.209136962890625
1774159871642083600,23.14508349609375,-0.15576171875,0.6714630126953125,-0.1324920654296875
1774159871662073600,23.165073486328126,-0.139404296875,0.7042694091796875,-0.013458251953125
1774159871682063600,23.185063720703123,-0.0968780517578125,0.7229766845703125,0.034454345703125
1774159871702054700,23.2050546875,-0.136566162109375,0.768218994140625,-0.0126190185546875
1774159871722044700,23.225044677734374,-0.1579742431640625,0.7892303466796875,-0.033935546875
1774159871742034700,23.24503466796875,-0.129791259765625,0.8028564453125,-0.04052734375
1774159871762024700,23.265024658203124,-0.083160400390625,0.8518524169921875,-0.054534912109375
1774159871782015500,23.285015380859374,-0.029876708984375,0.89923095703125,-0.040924072265625
1774159871802005500,23.305005615234375,0.0024566650390625,0.951019287109375,-0.0471038818359375
1774159871821995800,23.324995849609376,0.0333099365234375,0.95782470703125,-0.0618438720703125
1774159871841985800,23.34498583984375,0.02716064453125,0.9105987548828125,-0.0612945556640625
1774159871861976600,23.3649765625,0.0245208740234375,0.864227294921875,-0.0791778564453125
1774159871881966600,23.384966552734376,0.0245819091796875,0.8628997802734375,-0.0818939208984375
1774159871901956600,23.40495654296875,0.0007171630859375,0.8797149658203125,-0.04638671875
1774159871921946600,23.424946533203126,-0.0149383544921875,0.9032135009765625,-0.0176544189453125
1774159871941937700,23.444937744140624,-0.026031494140625,0.9514923095703125,-0.0117034912109375
1774159871961927700,23.464927734375,-0.056884765625,0.999755859375,-0.0252838134765625
1774159871981917700,23.484917724609375,0.00469970703125,1.0545654296875,-0.0134124755859375
1774159872001908500,23.504908447265624,0.0545654296875,1.1435089111328125,0.03118896484375
1774159872021898800,23.524898681640625,-0.0323028564453125,1.22686767578125,0.0300140380859375
1774159872041888800,23.544888671875,-0.110565185546875,1.2999420166015625,-0.0027923583984375
1774159872061878800,23.564878662109376,-0.1747894287109375,1.44110107421875,-0.0216522216796875
1774159872081869600,23.58486962890625,-0.192657470703125,1.5429229736328125,-0.0919342041015625
1774159872101859600,23.604859619140626,-0.400848388671875,1.51080322265625,-0.042755126953125
1774159872121849600,23.624849609375,-0.374267578125,1.4198150634765625,-0.00732421875
1774159872141839600,23.644839599609377,-0.444488525390625,1.2504730224609375,-0.0717926025390625
1774159872161830700,23.66483056640625,-0.45806884765625,1.09912109375,-0.0986785888671875
1774159872181820700,23.684820556640624,-0.3643035888671875,0.9495086669921875,-0.044219970703125
1774159872201810700,23.704810791015625,-0.2926788330078125,0.82720947265625,0.0372467041015625
1774159872221800400,23.724800537109374,-0.2664794921875,0.7698516845703125,0.139373779296875
1774159872241791700,23.744791748046875,-0.297698974609375,0.8199462890625,0.2660064697265625
1774159872261781800,23.76478173828125,-0.124603271484375,0.9539794921875,0.3626708984375
1774159872281772300,23.784772216796874,-0.09063720703125,1.0227508544921875,0.392974853515625
1774159872301763300,23.804763427734375,-0.201568603515625,0.97021484375,0.3034515380859375
1774159872321753300,23.82475341796875,-0.252716064453125,0.8874664306640625,0.1830902099609375
1774159872341743000,23.8447431640625,-0.3011627197265625,0.749542236328125,0.144989013671875
1774159872361733400,23.8647333984375,-0.3600311279296875,0.6491241455078125,0.0580902099609375
1774159872381724400,23.884724365234376,-0.3806915283203125,0.5801239013671875,0.033233642578125
1774159872401714400,23.90471435546875,-0.407135009765625,0.5968017578125,0.0286865234375
1774159872421704200,23.9247041015625,-0.370391845703125,0.6452789306640625,0.0025634765625
1774159872441694200,23.944694091796876,-0.34423828125,0.7085723876953125,0.0208892822265625
1774159872461685500,23.964685546875,-0.2209625244140625,0.809967041015625,0.0543670654296875
1774159872481675300,23.98467529296875,-0.056976318359375,0.9249420166015625,0.053863525390625
1774159872501665300,24.004665283203124,-0.1790924072265625,0.9925994873046875,0.0628814697265625
1774159872521656300,24.02465625,-0.1884613037109375,1.053558349609375,0.0790863037109375
1774159872541646300,24.044646240234375,-0.163482666015625,1.0582122802734375,0.06329345703125
1774159872561636400,24.06463623046875,-0.17926025390625,1.0418853759765625,0.026214599609375
1774159872581626400,24.08462646484375,-0.1783905029296875,1.018280029296875,-0.005401611328125
1774159872601617400,24.104617431640627,-0.15716552734375,0.9905548095703125,-0.0040435791015625
1774159872621607400,24.124607421875,-0.1386871337890625,0.9390869140625,-0.0129547119140625
1774159872641597200,24.14459716796875,-0.1175689697265625,0.9003753662109375,-0.015411376953125
1774159872661587200,24.164587158203126,-0.08392333984375,0.8926544189453125,-0.0139007568359375
1774159872681578500,24.18457861328125,-0.065155029296875,0.9026641845703125,-0.0097503662109375
1774159872701568300,24.204568359375,-0.0593719482421875,0.9312591552734375,-0.0074310302734375
1774159872721558300,24.224558349609374,-0.05133056640625,0.93157958984375,0.000244140625
1774159872741549300,24.24454931640625,-0.047637939453125,0.9360809326171875,0.019378662109375
1774159872761539600,24.26453955078125,-0.0351409912109375,0.9363555908203125,0.032440185546875
1774159872781529300,24.284529296875,-0.0287322998046875,0.97564697265625,0.0309600830078125
1774159872801519400,24.304519287109375,-0.041900634765625,0.99713134765625,0.04559326171875
1774159872821510400,24.324510498046877,-0.0283966064453125,1.0329742431640625,0.038543701171875
1774159872841500200,24.344500244140626,-0.1221160888671875,1.1584625244140625,0.0076446533203125
1774159872861490200,24.364490234375,-0.235992431640625,1.32135009765625,-0.0778961181640625
1774159872881480400,24.38448046875,-0.359405517578125,1.445587158203125,-0.1583099365234375
1774159872901471500,24.404471435546874,-0.416259765625,1.4234466552734375,-0.2810211181640625
1774159872921461200,24.424461181640623,-0.302825927734375,1.3641357421875,-0.393341064453125
1774159872941451300,24.444451171875,-0.2013092041015625,1.3828125,-0.2677459716796875
1774159872961442300,24.4644423828125,-0.2254180908203125,1.2096099853515625,-0.0062103271484375
1774159872981432300,24.484432373046875,-0.219268798828125,1.1133270263671875,0.0072021484375
1774159873001422300,24.50442236328125,-0.1954803466796875,0.9367218017578125,0.0662841796875
1774159873021412400,24.524412353515626,-0.15692138671875,0.7862396240234375,0.10736083984375
1774159873041403400,24.5444033203125,-0.1114654541015625,0.6922454833984375,0.128173828125
1774159873061393200,24.56439306640625,-0.0768890380859375,0.6380615234375,0.1141357421875
1774159873081383200,24.584383056640625,-0.0655059814453125,0.578521728515625,0.077545166015625
1774159873101373400,24.60437353515625,-0.0544281005859375,0.5639801025390625,0.046478271484375
1774159873121364500,24.624364501953124,-0.0270233154296875,0.569000244140625,0.0386810302734375
1774159873141354200,24.644354248046874,-0.009307861328125,0.613983154296875,0.042938232421875
1774159873161344300,24.66434423828125,-0.0049896240234375,0.716278076171875,0.0677032470703125
1774159873181335600,24.68433544921875,0.017333984375,0.8122406005859375,0.0715179443359375
1774159873201325300,24.7043251953125,0.025848388671875,0.8863983154296875,0.0333251953125
1774159873221315300,24.7243154296875,0.0225830078125,0.9756011962890625,0.0340118408203125
1774159873241305300,24.744305419921876,0.0188446044921875,1.0521697998046875,0.074920654296875
1774159873261296400,24.76429638671875,0.0081787109375,1.0991668701171875,0.10552978515625
1774159873281286000,24.784285888671874,-0.0188140869140625,1.0951385498046875,0.1082000732421875
1774159873301276000,24.80427587890625,-0.0539093017578125,1.0709381103515625,0.0670013427734375
1774159873321266000,24.824265869140625,-0.09454345703125,1.128631591796875,0.0308685302734375
1774159873341257000,24.844257080078126,-0.0485382080078125,1.2675323486328125,0.0614471435546875
1774159873361247000,24.8642470703125,0.082305908203125,1.3614349365234375,0.1477203369140625
1774159873381237000,24.884237060546877,0.0922698974609375,1.3936614990234375,0.2743988037109375
1774159873401228000,24.90422802734375,-0.017333984375,1.4009857177734375,0.3543701171875
1774159873421217800,24.9242177734375,-0.13873291015625,1.313262939453125,0.3757171630859375
1774159873441207800,24.944207763671876,-0.2449951171875,1.1919403076171875,0.2036895751953125
1774159873461197800,24.96419775390625,-0.3336029052734375,1.0558624267578125,0.0694580078125
1774159873481189000,24.984189208984375,-0.321136474609375,0.947296142578125,0.0366668701171875
1774159873501179000,25.004178955078125,-0.326904296875,0.9102935791015625,0.013153076171875
1774159873521169000,25.0241689453125,-0.3286895751953125,0.8931121826171875,0.0552978515625
1774159873541160000,25.044159912109375,-0.3152618408203125,0.91888427734375,0.120391845703125
1774159873561150000,25.06414990234375,-0.2920684814453125,0.9383392333984375,0.17620849609375
1774159873581140000,25.084139892578126,-0.2533721923828125,0.9557037353515625,0.221038818359375
1774159873601130000,25.1041298828125,-0.18084716796875,0.959503173828125,0.22100830078125
1774159873621121000,25.12412109375,-0.1149444580078125,1.008819580078125,0.179534912109375
1774159873641110800,25.14411083984375,-0.0882720947265625,0.997100830078125,0.105133056640625
1774159873661100800,25.164100830078127,-0.1318206787109375,0.9712982177734375,0.080535888671875
1774159873681091000,25.184091064453124,-0.0865631103515625,0.9029083251953125,0.0620880126953125
1774159873701082000,25.20408203125,-0.1389617919921875,0.8172454833984375,0.039276123046875
1774159873721071900,25.22407177734375,-0.249237060546875,0.7686309814453125,0.035064697265625
1774159873741062000,25.244061767578124,-0.2526397705078125,0.782135009765625,0.0464630126953125
1774159873761053200,25.26405322265625,-0.218475341796875,0.819671630859375,0.051727294921875
1774159873781043000,25.28404296875,-0.156890869140625,0.8578033447265625,0.0522308349609375
1774159873801033000,25.304032958984376,-0.125244140625,0.8994598388671875,0.0708770751953125
1774159873821023000,25.32402294921875,-0.1312408447265625,0.9397125244140625,0.09295654296875
1774159873841014000,25.344013916015626,-0.1120452880859375,0.9477691650390625,0.10760498046875
1774159873861003800,25.364003662109376,-0.111328125,0.93017578125,0.12030029296875
1774159873880994000,25.383994140625,-0.11370849609375,0.9025726318359375,0.12451171875
1774159873900984000,25.403984130859374,-0.116302490234375,0.8980255126953125,0.1043701171875
1774159873920974800,25.423974853515624,-0.1194915771484375,0.8983154296875,0.11224365234375
1774159873940964900,25.44396484375,-0.127777099609375,0.913238525390625,0.131256103515625
1774159873960955000,25.463954833984374,-0.1241607666015625,0.9354248046875,0.131591796875
1774159873980946200,25.4839462890625,-0.0948333740234375,0.9636077880859375,0.1398162841796875
1774159874000936000,25.50393603515625,-0.07159423828125,1.0368499755859375,0.13531494140625
1774159874020926000,25.523926025390626,0.0060882568359375,1.1413421630859375,0.1151123046875
1774159874040916000,25.543916015625,0.020904541015625,1.30322265625,0.06134033203125
1774159874060907000,25.563906982421877,-0.1162109375,1.561309814453125,0.0018157958984375
1774159874080896800,25.583896728515626,-0.229705810546875,1.737152099609375,-0.0170440673828125
1774159874100887000,25.603886962890623,-0.2453460693359375,1.39605712890625,0.0468902587890625
1774159874120878000,25.623878173828125,-0.2617950439453125,0.966827392578125,0.0055999755859375
1774159874140867800,25.643867919921874,-0.261474609375,0.6947174072265625,-0.2172393798828125
1774159874160857900,25.66385791015625,-0.158660888671875,0.5183563232421875,-0.3032379150390625
1774159874180847900,25.683847900390624,-0.043975830078125,0.6596527099609375,-0.18536376953125
1774159874200839200,25.703839111328126,0.0032501220703125,0.753448486328125,-0.0492095947265625
1774159874220829000,25.723828857421875,-0.0860137939453125,0.8464813232421875,-0.02398681640625
1774159874240819000,25.74381884765625,-0.18743896484375,0.976715087890625,0.0440216064453125
1774159874260809000,25.76380908203125,-0.1132965087890625,1.0212249755859375,0.0677337646484375
1774159874280799700,25.7837998046875,-0.0755767822265625,1.0526885986328125,0.0255279541015625
1774159874300789200,25.803789306640624,-0.178680419921875,1.007537841796875,0.0123443603515625
1774159874320779500,25.823779541015625,-0.185302734375,0.9691009521484375,0.0406494140625
