time,seconds_elapsed,z,y,x
1774159848548248300,0.051248291015625,-1.4364064298033714,1.1461910193130374,0.19854396574795244
1774159848568238300,0.07123828125,-0.9136562288969755,0.7539525736749172,0.5376162730615586
1774159848588229400,0.0912294921875,-1.1722107189714908,0.4350114194378257,0.3613061317577958
1774159848608219400,0.111219482421875,-1.4991601153582335,0.9327318085059523,0.11624938462730497
1774159848628210400,0.13121044921875,-1.968649850720167,0.8610960205763578,-0.11666253200545906
1774159848648200200,0.1512001953125,0.23908640401661393,1.2584215602204203,-0.2091336757581681
1774159848668191500,0.17119140625,0.32194355092346666,1.4428759180784225,0.22518355087041853
1774159848688181500,0.191181396484375,-0.14561960029006005,2.242491926297545,-0.19514299819804726
1774159848708172300,0.21117236328125,-0.9462930086076259,2.5983184576004743,-0.6262217543620616
1774159848728162300,0.231162353515625,-1.086807979235053,-0.2511661333888769,-1.1355793166667223
1774159848748153300,0.2511533203125,0.5844119995713234,-2.1543957096934316,0.1664296024762094
1774159848768143400,0.271143310546875,3.249761673915386,-2.2377321645498274,0.9103593793086707
1774159848788134400,0.291134521484375,3.22328984657526,-1.1305734712034463,1.1060368497096003
1774159848808124400,0.31112451171875,0.8310720537126064,0.9877402867615223,-0.6607157793119549
1774159848828115500,0.331115478515625,-0.31932080120444295,0.5844780505448579,-1.002406087104231
1774159848848105500,0.35110546875,-0.030849896293878555,-0.4428074801415205,-0.6079549338527024
1774159848868096300,0.37109619140625,0.11610358294844626,0.32265082240998744,0.01397474933862686
1774159848888086300,0.391086181640625,-0.28085750729739667,0.8430407239258288,-0.012940876246243715
1774159848908077300,0.411077392578125,-0.9145663294792175,0.30767478707432744,-0.36996027059555053
1774159848928067300,0.4310673828125,-1.0637065051108598,0.26670184843391176,-0.7644399192892014
1774159848948058400,0.451058349609375,-0.7015899337530136,0.1462006150484085,-0.23949396190419792
1774159848968048400,0.47104833984375,-0.029435353320837018,0.36606443220078944,0.026091595850884913
1774159848988039200,0.4910390625,0.276397605279088,0.07543313438594342,-0.07837342562153934
1774159849008029400,0.511029541015625,0.12382394806742668,-0.16096622250378131,-0.5508196727015078
1774159849028020500,0.5310205078125,-0.1068003325521946,-0.24286066185832023,-0.7290386433012783
1774159849048010200,0.55101025390625,0.3700263215690851,-0.4317337129414081,-0.40369682824164627
1774159849068001300,0.571001220703125,0.18662497989535332,-0.08111585619747638,-0.24735621971189975
1774159849087991300,0.5909912109375,0.0551601616859436,0.19644787025153634,-0.3249436095222831
1774159849107982300,0.610982421875,0.20559680686891077,-0.12759294521212577,-0.3601350421518087
1774159849127972400,0.630972412109375,0.5638531956672668,-0.5783025767803192,-0.23287176728546619
1774159849147963400,0.65096337890625,0.06857260096669196,-0.3393681484550237,-0.18246873699873684
1774159849167953200,0.670953125,-0.689725892958045,0.4636678973406553,-0.521869618679583
1774159849187944400,0.6909443359375,-0.008280337089300155,0.6145189685434103,0.008162848189473151
1774159849207934500,0.7109345703125,0.017129998499155044,0.23054069398939608,0.42266865521520375
1774159849227925200,0.73092529296875,-0.18637889617979525,0.3999211090952158,0.16630582996606827
1774159849247915300,0.750915283203125,-0.024942718076705932,0.696191874101758,0.3029156098484993
1774159849267906300,0.77090625,0.20510873109102248,-0.06089081429243087,0.22224106767773627
1774159849287896300,0.790896240234375,-0.3628688510298729,-0.6898498115986585,0.031202362993359566
1774159849307887600,0.8108876953125,-0.9739221892893314,-0.2190980934768915,-0.4244371261924505
1774159849327877600,0.830877685546875,-0.744702514770627,0.001817278555035591,-0.07376403212994337
1774159849347868400,0.850868408203125,-0.5740285527229309,0.4514385303646326,0.0748605951949954
1774159849367858400,0.8708583984375,0.03318447672128677,0.40202129624485966,0.3034334962427616
1774159849387849500,0.890849365234375,1.0067325720012188,-0.438117861020565,0.29479075558185575
1774159849407839500,0.910839599609375,0.20189853687286377,-0.0020727146208286283,0.4033408544108271
1774159849427830500,0.93083056640625,-0.646058600667119,0.8865759142696857,0.4082923393383622
1774159849447820500,0.950820556640625,-0.3002536971628666,1.1960644727677106,0.48275019895136356
1774159849467811600,0.9708115234375,0.15042904639840124,1.0494961934506892,0.7299652566269039
1774159849487801600,0.990801513671875,-0.04816343466639519,0.7905623486697674,1.0705495028734207
1774159849507792400,1.01079248046875,0.5305108980357647,0.3178501441299915,0.6012766251325607
1774159849527782400,1.030782470703125,-0.5914864680022001,-0.14038228415846823,-0.5044798002004623
1774159849547773400,1.0507734375,-2.1566046179145575,0.4389204095751047,-0.6842053759709
1774159849567763500,1.070763427734375,-1.6970622760713099,-0.009330722925066948,-0.914405001437664
1774159849587754500,1.09075439453125,0.12075053197145462,-2.9892399754211305,-3.134075731857121
1774159849607744500,1.11074462890625,1.01896486158669,-2.9482278738141057,-1.181912321035564
1774159849627735300,1.1307353515625,0.0798339996933937,-1.0543389573067425,-0.666972793880105
1774159849647725600,1.1507255859375,0.8121165933519602,0.402363826072216,-1.1529852094978092
1774159849667716600,1.170716552734375,0.7288339145094156,0.030020167471468448,-1.223298224391043
1774159849687706400,1.190706298828125,0.6628150896787643,-0.6588070230811834,-1.6952619486510752
1774159849707697400,1.210697509765625,1.450575824931264,-1.186863805963099,-1.519414967879653
1774159849727687400,1.2306875,1.544812443986535,-0.36619682640880347,0.013980302296578883
1774159849747678500,1.250678466796875,1.660726641842723,0.7765294394031167,1.62501703055799
1774159849767668500,1.27066845703125,0.9825193372428417,1.0175596709638834,2.284486901462078
1774159849787659500,1.290659423828125,0.2377110240101814,1.9713962268188594,2.303383325111866
1774159849807649300,1.310649169921875,-0.27039924164712426,2.262472930313647,1.973159437099099
1774159849827639600,1.3306396484375,-3.008618337368965,1.1834630576089025,0.5518734195381403
1774159849847630600,1.350630615234375,-2.6308868482500314,0.3627504853472113,-0.9501350709885358
1774159849867620400,1.370620361328125,-1.1211679294764996,-1.3961927850976585,-0.8991992489993572
1774159849887611400,1.390611328125,0.3159855193018913,-2.1026744364149867,-1.4089116891562938
1774159849907601400,1.410601318359375,0.6043997255891561,-1.8738427383005618,-1.9736814151465891
1774159849927592400,1.430592529296875,1.4731032985597847,-0.47903190908059473,-1.5196166279315948
1774159849947582500,1.45058251953125,0.7824421705782413,0.1738321338176727,-0.7060287929832935
1774159849967573500,1.470573486328125,0.5165390713065863,0.12887363267242907,-0.27649025199860333
1774159849987563300,1.490563232421875,0.9077180710196494,0.2915542578786611,-0.35250206305533643
1774159850007554600,1.510554443359375,1.3424398598611353,0.21393051811326294,-0.22095804212987422
1774159850027544600,1.530544677734375,0.022012509843707083,-0.054810179204493756,0.1992787097632885
1774159850047535400,1.550535400390625,-0.3283271144807339,0.34185868662912394,0.2592895263507962
1774159850067525400,1.570525390625,-0.7699941924154758,0.3931042321546003,0.4633510864764452
1774159850087516700,1.5905166015625,-0.15905191331505775,0.5649250626824796,0.6032458793789148
1774159850107506400,1.61050634765625,0.18399112426042555,0.38120859064497054,0.44662206999361515
1774159850127497500,1.63049755859375,-0.20363222879767418,-0.6210678056649863,0.3702404027111828
1774159850147487500,1.650487548828125,0.4187380377680063,-0.18386844772882757,0.03131181471720337
1774159850167478500,1.670478515625,0.5654752439111471,-0.02420545331072062,0.6932464682996272
1774159850187468500,1.690468505859375,1.2892799320816992,0.5741636868773028,1.099463754929602
1774159850207459300,1.710459228515625,0.6328308703035116,0.9351345587987452,1.5153943340614437
1774159850227449300,1.730449462890625,1.9360761993736026,0.7475001095999032,2.1038564858064053
1774159850247440600,1.750440673828125,2.241373151400685,0.6163162272237241,2.22301273432374
1774159850267430700,1.7704306640625,0.18257482772171496,0.9728819595213979,1.3708758268810808
1774159850287420700,1.790420654296875,-0.21465631163716314,1.2274644041597842,0.679367580550909
1774159850307411700,1.81041162109375,0.2066670664489269,1.148747937254235,0.4513353622511029
1774159850327401700,1.830401611328125,0.5034726689845324,1.0709249851223082,-0.2236751921340823
1774159850347392800,1.850392822265625,-1.090957500129938,0.19092881456911562,-3.4468531027674674
1774159850367382800,1.8703828125,-1.9752216303259134,-1.6393638280794023,-6.346828110066056
1774159850387373600,1.89037353515625,-4.999841254425048,-1.018208344130963,-3.288289265230298
1774159850407363600,1.910363525390625,-4.718399225237965,1.5462896769322454,-0.7153641920834779
1774159850427355000,1.93035498046875,-1.5495938330441712,4.359896752724051,2.9903514437943697
1774159850447345000,1.950344970703125,-0.23656068493127821,2.0574656137704848,1.6412416046500204
1774159850467335700,1.970335693359375,0.35405542997717854,-0.402406788431108,1.1912801611006258
1774159850487325700,1.99032568359375,0.6853215205192565,-0.290530102462694,0.3404857543081045
1774159850507316700,2.010316650390625,1.3736042289316654,-1.2310584831289946,-0.18144377786517144
1774159850527306800,2.030306640625,5.077876680263876,-1.6121096181899308,0.8531821787118912
1774159850547297800,2.0502978515625,4.720508764737844,-1.5938870021484792,-0.3794067288547754
1774159850567287800,2.070287841796875,5.927039101940393,-1.7766276879563927,-1.2695529028266668
1774159850587278600,2.090278564453125,2.426079730454087,-0.15664266021624207,-0.6603513299137354
1774159850607268900,2.110268798828125,-0.6307762758612633,0.610650456546992,-0.5585603499561548
1774159850627259600,2.130259765625,-1.8087959733724592,-0.22222075554206966,-0.39957741022408005
1774159850647249700,2.150249755859375,-1.2773954330205917,0.5183231782443821,-0.07061433592736721
1774159850667240700,2.17024072265625,0.5309674096316099,0.880067409158498,-0.0736035808712244
1774159850687230700,2.190230712890625,5.619750099313259,2.1883526320919393,0.3295458426207304
1774159850707221800,2.2102216796875,3.779166072013974,2.3841613276571034,-1.1394266397446393
1774159850727211800,2.230211669921875,0.9249117824047803,1.0495096374541522,-2.6059102279037236
1774159850747201800,2.250201904296875,-8.415181613075733,0.7203291210144758,-2.9492256526798006
1774159850767192600,2.270192626953125,-5.284152701568603,0.034905016903579236,-1.2321844184190034
1774159850787182800,2.290182861328125,0.7601517205759882,0.4819698622286319,0.958515945842862
1774159850807173600,2.310173583984375,1.4499445412904024,-0.2357788869038224,1.9172095863401888
1774159850827163600,2.33016357421875,-1.0038254523828625,0.2841156323105097,1.62182787912786
1774159850847154700,2.35015478515625,-0.8861813619941472,0.08859598281979561,1.260354281848669
1774159850867144700,2.370144775390625,-0.4665376075580716,-0.4831853754982352,0.9763228206902742
1774159850887135700,2.3901357421875,0.8303601060509681,-2.3958526422336694,-2.5635265456825493
1774159850907125800,2.410125732421875,0.705266868700087,0.13409282862544059,0.9503396536499261
1774159850927116500,2.430116455078125,-0.2939163108348846,0.4143956246495247,3.4303941353976724
1774159850947106800,2.45010693359375,-0.7518909649699926,-0.5577209765225648,0.3891746741533279
1774159850967097900,2.470097900390625,-1.909469639737904,-1.6981202606916426,-2.441893385657668
1774159850987087600,2.490087646484375,-0.1430202314466238,-0.3184954562962055,-1.5945675317585468
1774159851007078700,2.51007861328125,3.6020734750956294,1.4128770856559276,-1.3134861525774002
1774159851027068700,2.530068603515625,1.4508862060546874,3.847466870301962,-1.3823901774555445
1774159851047059700,2.550059814453125,0.7272101126998662,1.9771791941344736,-0.7066402028799057
1774159851067049700,2.5700498046875,0.8742163450427353,0.5128904856711626,-0.8060854964941739
1774159851087039700,2.590039794921875,-0.17224544914811848,-1.1248048246741293,0.26278759759962556
1774159851107030500,2.610030517578125,-0.20337445464432238,-0.4042617686480284,1.2740543058991431
1774159851127020800,2.630020751953125,-0.6333142699062824,-0.33741759890913964,1.590854064193368
1774159851147011800,2.65001171875,-1.0939029059320688,0.2096516352176666,0.544137856850028
1774159851167001600,2.670001708984375,0.23221534920334816,0.49837330001890656,-0.6333867506206036
1774159851186992600,2.68999267578125,3.4717806232750412,0.16900339848697185,0.04443009335696697
1774159851206982700,2.709982666015625,1.7590619283884763,1.0712287173092365,3.0291964304953813
1774159851226973700,2.7299736328125,-1.2646440879970788,1.421487093091011,4.098090567377209
1774159851246963700,2.749963623046875,-2.540786890608072,-1.542815132689476,0.7707336126059293
1774159851266955000,2.769955078125,-3.641315936681628,-1.7420768913179634,1.084189321169257
1774159851286944800,2.78994482421875,-0.59448009686023,-0.8203466615587472,-0.9367007121369242
1774159851306934800,2.809934814453125,-0.6957258640252053,-0.8656067759990692,-2.870153285008669
1774159851326926000,2.829926025390625,-3.22726225733757,-0.6092237847447395,-2.780776673205197
1774159851346915800,2.849915771484375,-0.8811972899712621,-0.44175475621819493,-0.9348775883629917
1774159851366907000,2.869906982421875,-1.378587424171716,-0.959793710693717,-0.37956688785254955
1774159851386897000,2.88989697265625,1.0439181010574101,-1.6756804653465747,-0.27339842346310617
1774159851406887700,2.9098876953125,1.8967117188431322,-1.5663994218945503,-1.9910569128394127
1774159851426878000,2.9298779296875,-0.4393586548618972,-0.7870335900217295,-1.8457745816797018
1774159851446869000,2.949868896484375,-1.5323726491302252,0.5241466237008572,-0.8333926056146621
1774159851466858800,2.969858642578125,-1.3112424653038381,0.5679097775816917,-0.21101678609102964
1774159851486848800,2.989848876953125,0.8022574626386165,1.982417679309845,1.4464219201222062
1774159851506840000,3.009840087890625,4.143751663833856,1.775940582475066,2.201713633446395
1774159851526830000,3.029830078125,1.6213979632779956,-0.545310992282629,0.8855743360117078
1774159851546820900,3.04982080078125,0.456928359952569,-2.6332640987753866,2.9457758044868707
1774159851566811000,3.069810791015625,-0.858264596542716,-3.097842096698284,1.7943062602490185
1774159851586802000,3.089802001953125,2.4951237483248114,-1.5473054298460482,1.2404670935958624
1774159851606792000,3.1097919921875,-0.37351036429256196,0.4523913010448217,-0.6027142201876268
1774159851626783000,3.129782958984375,-1.5827090439215301,1.2981564814984798,-0.8702908421620726
1774159851646772700,3.149772705078125,-2.0117662311300633,0.5575719234406947,-0.4976891171470284
1774159851666762800,3.1697626953125,-1.26225456251204,0.5907546465963125,-0.5292874206554145
1774159851686754000,3.189754150390625,2.8006226526647806,-2.6330940029054877,1.2089675742868333
1774159851706744000,3.209744140625,1.1006348445355891,-3.9402936225593086,0.5299780332680791
1774159851726734800,3.22973486328125,-0.8844178594529628,-0.9190911134272813,-0.0006421703610569238
1774159851746724900,3.249724853515625,-0.6820889683388173,3.1498522699207068,-1.0190814737036824
1774159851766716000,3.2697158203125,-2.7603198683708903,1.1780465855181217,-1.4060535232461988
1774159851786706000,3.289705810546875,1.0323972476769239,3.200913179594278,-1.0515685427453367
1774159851806697000,3.309697021484375,-1.088030652897805,3.7237165719926355,-0.8698399565894156
1774159851826687000,3.32968701171875,-2.101436857444048,3.6945869236201045,-0.03833532014582306
1774159851846676700,3.3496767578125,-0.6681682872749864,2.3799673830986023,1.0676921406809239
1774159851866668000,3.36966796875,-0.4797796587079763,1.1593243493914605,0.4610601259950548
1774159851886658000,3.389657958984375,2.0791601437062024,-1.0327367818295956,0.12112437025252729
1774159851906648800,3.40964892578125,0.7132673659346997,-0.0866577082335949,0.3179500973731279
1774159851926638800,3.429638916015625,1.0493132380992174,0.5157715940654277,-0.48211387380920345
1774159851946630000,3.4496298828125,0.5419816286642104,-0.2803489732533693,-0.4567381346100941
1774159851966620000,3.469619873046875,-2.4882693523854016,-0.44340836864411826,0.3827241828396916
1774159851986610000,3.48960986328125,-0.3147258746296167,-0.4729220478981733,-0.8040360166184604
1774159852006601000,3.50960107421875,-0.5805377884864806,-0.43475569111108775,-2.072269799670577
1774159852026590700,3.5295908203125,1.3473726400882005,-0.12729425452649593,-1.5719346980594098
1774159852046582000,3.54958203125,1.7183529013812542,-0.46637423368990416,-1.0431211054608225
1774159852066572000,3.569572021484375,1.0385480984568596,0.0062146367311477655,-0.8403859716333448
1774159852086562800,3.589562744140625,-0.22246848322544246,-0.5100783508598804,-1.085788719189912
1774159852106552800,3.609552734375,6.287666896045208,1.4738906495451927,-0.3709307961281389
1774159852126542800,3.62954296875,-3.290107128307223,-1.048332994890213,-1.4229106961533426
1774159852146534000,3.649533935546875,2.2998498902887103,-0.20945815847218036,-1.5229532250083981
1774159852166524000,3.66952392578125,1.525093598037958,0.600492781278491,-0.9945900065258145
1774159852186515000,3.689514892578125,-0.5528787971884012,0.1068301431685686,-1.436985106474161
1774159852206504700,3.709504638671875,0.7647539536744355,-0.3029372371584177,-0.16925967480298132
1774159852226496000,3.72949609375,0.4682089748363942,0.5863479360699654,-0.7324485248100012
1774159852246486000,3.749486083984375,0.2794582349587232,0.7875316026717424,-1.0101930146533995
1774159852266476000,3.76947607421875,0.5870201362431049,0.35951720251441,-0.7416212076291442
1774159852286467000,3.789467041015625,0.5327917755145579,-1.4269190550118684,-0.29377525839637963
1774159852306457000,3.80945703125,0.041404023534059524,-0.9919698871552943,0.1309692167121917
1774159852326448000,3.8294482421875,-0.11544658034443854,-0.5372124415010213,0.16231135350242257
1774159852346438100,3.849438232421875,-1.005371731976792,-0.15631050565242766,-0.26572737737856805
1774159852366429200,3.86942919921875,1.0384925688773392,-0.5606997000724077,0.8562266609743237
1774159852386419000,3.8894189453125,2.6374481064617634,0.7567758144021034,0.8310194467425346
1774159852406410200,3.90941015625,-1.5225252088546752,-0.5303478164285421,1.0154276273712515
1774159852426400300,3.929400146484375,-1.0278793318610637,-3.36648543458879,-0.08638627088107168
1774159852446390300,3.949390380859375,0.3809930481981486,-1.3883938017845152,-0.02023760912567377
1774159852466381000,3.969381103515625,1.6740063946545123,2.2609026122570035,0.44441425775103266
1774159852486371000,3.98937109375,0.4910177496243268,0.7169879938930273,2.251602722861618
1774159852506362000,4.009362060546875,2.07397952619791,0.1766132889688015,2.3875566691838204
1774159852526352100,4.02935205078125,1.3958575617939233,1.5280892727226019,2.1256153131499884
1774159852546342100,4.049342041015625,1.4669016674406825,0.3990969332307577,0.7442170693412423
1774159852566333000,4.0693330078125,0.8479103757888078,-0.18037877898216245,-0.025552082146704194
1774159852586323000,4.089322998046875,1.8882720995388924,-0.1864420245438814,0.21357216966226697
1774159852606314200,4.109314208984375,1.267564359357953,1.0807324587136506,0.5739917278438806
1774159852626304300,4.12930419921875,0.002935468930006027,1.1260931109189987,1.1194707701697946
1774159852646295000,4.149294921875,1.177474484718591,0.5585200179457664,1.7932251870140432
1774159852666285000,4.16928515625,-0.3811667242646217,-0.09142974494099616,0.8681102832525968
1774159852686275300,4.189275390625,1.308913437834382,-3.7677006751477715,0.7319193863693624
1774159852706266000,4.20926611328125,0.2418053075864911,-2.7911311862200496,-0.22325616300441323
1774159852726256000,4.229256103515625,0.9731108729064464,-2.2196862202495335,-0.8860458259809761
1774159852746247200,4.2492470703125,-1.347850048341602,-1.5391209543466566,-1.4211324344344436
1774159852766237000,4.26923681640625,-2.1052869570009407,-2.048992384457588,-0.4575828052733093
1774159852786228200,4.289228271484375,-0.22407120571434497,-3.204766347891092,0.5429127720344812
1774159852806218200,4.30921826171875,4.000183735376596,-2.8707407295078036,0.8142393576595932
1774159852826208000,4.3292080078125,3.5235382830411193,-0.6517179416030645,0.39975985411889847
1774159852846199000,4.349198974609375,0.8992700492132455,1.1282330455571412,-0.14543934835232794
1774159852866189300,4.369189208984375,4.072234826108813,2.570679340046644,2.660366917495429
1774159852886180000,4.38918017578125,1.2936468951195477,2.466477791815996,3.9558132632523773
1774159852906170000,4.409170166015625,1.8961176984727381,2.9393980861485,0.3670765318527818
1774159852926161200,4.4291611328125,1.6746218962043522,2.9597815334856508,-0.6914004020415246
1774159852946151000,4.44915087890625,1.4229074812829494,3.2391566932708025,-1.569422861368954
1774159852966141200,4.46914111328125,1.9322440738648174,-0.35983635146617887,0.6849640853837132
1774159852986132200,4.48913232421875,2.0232547166109085,0.9191454739630222,0.35088914796598253
1774159853006122200,4.509122314453125,-0.740026924175024,-0.024089900639653203,-0.6952632880147546
1774159853026113000,4.529113037109375,-0.2847673742175102,2.105187149888277,0.039931759024411435
1774159853046103300,4.549103271484375,0.652535687726736,2.4137942493766547,4.206328823778033
1774159853066093300,4.56909326171875,2.8848107559144496,5.188517321631312,3.182257286702096
1774159853086084000,4.589083984375,-2.87108325933516,3.8172067565947767,-2.08481539298892
1774159853106074000,4.60907421875,-1.6750415829211474,-3.1420904037475585,-3.0457924682483077
1774159853126065200,4.629065185546875,-0.6269920811474323,-4.612279276165366,-2.9969112407013774
1774159853146055200,4.64905517578125,-0.40351354409661144,-4.0619975097328425,-0.8515883336491882
1774159853166046200,4.669046142578125,-0.5945593726415187,-2.657452199092507,0.1244708676688373
1774159853186036200,4.6890361328125,-1.9690531708240508,-2.9180098456829784,1.6906453947663307
1774159853206026000,4.70902587890625,-2.820524453964829,-2.218735787656903,1.6736128652922808
1774159853226017300,4.729017333984375,-2.9692548797518015,-0.6320832668066024,1.2505863365501164
1774159853246007300,4.74900732421875,-0.16917634390108285,1.7344325140446424,0.22846474623186513
1774159853265998000,4.768998046875,1.552608212429285,0.7569149306118488,0.22427244564117862
1774159853285988000,4.788988037109375,0.43916992735676463,-0.3085696900874376,-0.38705439406372605
1774159853305979100,4.808979248046875,2.4041578215032815,-1.2729086429953573,-0.6721176094226539
1774159853325969200,4.82896923828125,1.7562486245334148,-1.4478928694576023,-0.33824265155643224
1774159853345959200,4.848959228515625,0.7773439706563949,1.006045758780837,-0.6711424807801842
1774159853365950200,4.8689501953125,1.023694228196144,2.8787983637571335,-0.8344825928084552
1774159853385940000,4.88893994140625,0.0067775313109159465,0.5737754547446966,-1.327546095981449
1774159853405931300,4.90893115234375,1.634748735499382,-0.7768471270501613,-1.4936451513290405
1774159853425921300,4.92892138671875,0.905242036294937,-0.2002881790667772,-1.4260321891747414
1774159853445911300,4.948911376953125,1.1524895349353552,-1.4935522123485803,-1.6870267658777534
1774159853465902000,4.968902099609375,2.1290350584656,-1.3592635688900947,-1.120245846195519
1774159853485892000,4.98889208984375,0.5956973636955022,-1.9123983866661787,-0.6959981050953269
1774159853505883100,5.008883056640625,-3.02757555129528,0.4918284084200859,-1.1384405513167382
1774159853525873200,5.028873046875,-1.3937201113738118,-0.17751754433214664,-0.7724125786688179
1774159853545864200,5.0488642578125,2.386242079453915,-2.2333003195822236,0.022319730895664542
1774159853565854000,5.06885400390625,1.4905337413102389,-1.8773779266893862,0.6280274155445397
1774159853585844000,5.088843994140625,1.066864823011309,0.07833353200256823,0.3625208413098007
1774159853605835300,5.108835205078125,0.7047766009651124,-0.010488660788536072,0.30149343155827374
1774159853625825300,5.1288251953125,-0.13937507987730205,-0.36675767516195773,0.2368923828373663
1774159853645816000,5.148816162109375,2.0590191268227995,-1.8256442323207853,-0.05394784502042457
1774159853665806000,5.16880615234375,1.971090375740081,0.008141220879554748,-0.8713889395970851
1774159853685796000,5.188796142578125,1.0362691206742078,3.15275559014678,-1.6548852223381398
1774159853705787100,5.208787109375,2.7583056059390305,3.667502517339587,0.9152991007331758
1774159853725777200,5.228777099609375,2.201403398453444,3.2620179288983344,1.3187014030076563
1774159853745768200,5.248768310546875,-3.506909219801426,2.6063211467921734,0.16700068036243318
1774159853765758000,5.268758056640625,-7.721969631567597,3.3562785133510826,-1.6310095489710568
1774159853785748200,5.288748291015625,-2.605359608283639,-0.9159563225328922,-0.690305738672614
1774159853805739300,5.3087392578125,3.0624446201026436,-4.556922715124488,1.1702533012934029
1774159853825729000,5.32872900390625,5.818033952820301,-3.613950375372171,1.397515412003547
1774159853845720000,5.348719970703125,-2.0808511655330655,0.4982704241663217,0.44144448469262565
1774159853865710000,5.3687099609375,-1.47676766628623,-0.24747253956794737,-0.5549542152229696
1774159853885700400,5.388700439453125,-1.4401508770287037,0.005803717842698097,-0.22571382182221858
1774159853905691100,5.408691162109375,-1.7906547520041465,1.697151707920432,0.022373561708442867
1774159853925681200,5.42868115234375,1.1376046850144863,1.8914409388333557,0.240889288720116
1774159853945672000,5.448671875,-2.615374221819639,1.6584914301365612,0.6340706412315368
1774159853965662200,5.468662109375,-2.1404759054124356,1.9458844766825436,0.4670872773300856
1774159853985652200,5.48865234375,-0.6775298437297343,0.8802274220257997,0.0030884675346314907
1774159854005643000,5.50864306640625,0.925166049426794,-0.7643494645267724,-0.5873010720763355
1774159854025633000,5.528633056640625,0.9789970083355903,-1.199489771041274,-0.813509070623666
1774159854045624000,5.5486240234375,1.4235948790252209,-1.0439847365528345,-0.7413890063084662
1774159854065614300,5.5686142578125,1.374520759254694,-1.184150163090229,-0.5067224645607173
1774159854085604000,5.58860400390625,-3.2971628920376297,2.80922096966207,-1.0444585646096616
1774159854105595100,5.60859521484375,1.9403180747270583,-1.5475246255546808,-0.31991551569458093
1774159854125585200,5.628585205078125,0.6189443837702274,-2.285927747920155,-0.7457066503118723
1774159854145576200,5.648576171875,0.1644961501955986,-3.0816788974046707,-0.18750004569683223
1774159854165566200,5.668566162109375,0.0918745478327386,-1.6657932775825262,0.3128877359496429
1774159854185557200,5.68855712890625,2.2651211067348718,-1.3567033630132674,0.5187325992954894
1774159854205547000,5.708547119140625,0.8731522960077971,0.3339806101977825,1.9768971623226999
1774159854225537000,5.728537109375,1.058736388548091,-2.1608009005606172,1.7020225288271904
1774159854245528300,5.7485283203125,2.5941870568841696,-0.7738333321869373,1.1296152206305414
1774159854265518300,5.768518310546875,2.076045372686535,-2.121767113289237,0.8735008171845227
1774159854285509400,5.78850927734375,0.10626038045659661,-4.172551057338715,2.8204128102838992
1774159854305499400,5.80849951171875,2.871415852290392,-0.3387602456897497,3.0289702205240725
1774159854325489400,5.828489501953125,3.621619887086749,1.1612333978831768,3.15089944088608
1774159854345480400,5.84848046875,-5.343076599702239,2.2592945925384758,1.7463911012552678
1774159854365470500,5.868470458984375,-2.505260819196701,2.0776526617527007,-0.4703421509401872
1774159854385460500,5.88846044921875,1.7239876923978328,1.4877204374551771,-2.621137607651949
1774159854405451300,5.908451171875,2.7189561768472195,2.060270149797201,-1.7820540969192982
1774159854425441500,5.928441650390625,5.492150139838457,3.253432471382618,-0.6753506730597466
1774159854445432300,5.948432373046875,-2.7327134840428826,5.5022424947857855,0.5041018337335437
1774159854465422300,5.96842236328125,-1.1895955690145492,1.0988993990451097,-2.0037097659245133
1774159854485412400,5.988412353515625,-1.1271604478895663,-3.2434681267291308,-3.395325744625926
1774159854505403400,6.0084033203125,-0.40456177450791,-1.5145762956768274,-3.1686738747686145
1774159854525393400,6.028393310546875,-1.2910814285457133,1.6044038661181925,-2.0598567466907203
1774159854545384400,6.048384521484375,-0.3631214375514537,2.782059406492114,-2.023513367547095
1774159854565374500,6.06837451171875,-0.5815431661367416,2.2703046468526122,-1.4086936624914408
1774159854585364200,6.0883642578125,-2.8554443761765955,-0.0070697922557592385,0.061680722561106086
1774159854605355500,6.10835546875,-1.556649596774578,-0.5985784720897674,1.4670426833465695
1774159854625345500,6.128345458984375,1.7068226225852965,-1.5420225210070608,1.886207129833102
1774159854645336300,6.14833642578125,2.26659819355011,-2.5758447599858045,2.497786830054223
1774159854665326300,6.168326416015625,0.6323872181892395,-2.613039056870341,2.313245378434658
1774159854685316400,6.18831640625,1.3076070314109325,-1.9907325031906364,0.9249006034236401
1774159854705307400,6.208307373046875,0.6648328592419624,-1.3751520428955555,-0.21862459421362726
1774159854725297400,6.22829736328125,0.15733400348126889,-0.7307271809101105,-0.4248061056353152
1774159854745288400,6.248288330078125,0.007969371443986892,-0.2668476866453886,-0.6271927182860673
1774159854765278500,6.268278564453125,0.25902912184894084,-0.15432371574938297,-0.9753459384821355
1774159854785268200,6.288268310546875,0.5482207422494888,-0.4627636419773102,-1.1102733182355762
1774159854805259500,6.308259521484375,0.5473637966265902,-0.5769423943430185,-1.0393390296388416
1774159854825249500,6.32824951171875,1.1975666940242051,-0.7331792502373456,-1.1415911243021488
1774159854845239300,6.3482392578125,1.079989531391859,-1.2132996852070093,-1.0026879727855325
1774159854865230300,6.368230224609375,1.2648352266550063,-1.2815396932184695,-0.24421174767371265
1774159854885220400,6.388220458984375,1.2907961818635463,-0.457331095534563,0.3432496660634875
1774159854905211400,6.40821142578125,1.0809861412137747,0.470330277839303,-0.3483634288806468
1774159854925201400,6.428201416015625,0.6077730014145374,0.9151391609311104,-1.3112481643922627
1774159854945191400,6.44819140625,0.5299082559674978,0.940337899595499,-2.008213360954076
1774159854965182200,6.46818212890625,0.28966449860930443,1.6584084280282259,-1.5531515255257486
1774159854985172200,6.488172119140625,0.6098001233279705,2.038319599273801,0.3289545256640762
1774159855005163500,6.50816357421875,-0.1426771262305323,2.3834394431233403,1.5919696242198347
1774159855025153300,6.5281533203125,-0.12435761655271052,0.7697562920063734,2.162835036736727
1774159855045143300,6.548143310546875,-0.3656260407835245,0.4329068483740091,0.9795490161951631
1774159855065134300,6.56813427734375,0.20474398943185806,-0.06373100615441799,0.0087396982293576
1774159855085124600,6.58812451171875,-0.593918663585186,-0.5250578933268785,0.7269457626752555
1774159855105114400,6.6081142578125,-1.456310569190979,0.42243923037350173,1.9498771995805202
1774159855125105400,6.62810546875,-2.7616718675017355,0.4154664687514305,1.2871798910625278
1774159855145095400,6.648095458984375,-2.607643335306644,1.0586895537316798,-0.13647807979416102
1774159855165086200,6.668086181640625,-1.6826187401771544,0.6544570111781358,-1.441844383073598
1774159855185076500,6.688076416015625,-1.408896491587162,0.3794160812050104,-1.5664822778724132
1774159855205066500,6.70806640625,-0.8344833234608173,0.7603110027909279,-1.2694574796281755
1774159855225057300,6.728057373046875,-0.527360325050354,0.7505261063575744,-0.8700411782499402
1774159855245047300,6.74804736328125,-0.07138415125608444,0.22489012088179586,-0.31416451441980897
1774159855265037600,6.76803759765625,-0.015907187839085235,-0.5686538739472627,0.11552756402562371
1774159855285027600,6.788027587890625,-0.08444704644680023,-1.4151456151098012,0.06965846910779364
1774159855305017600,6.808017578125,-0.4549053296923637,-1.6508780325233936,0.19256138420701024
1774159855325008600,6.828008544921875,-0.35007249782085414,-1.709817128226161,0.16566053606616332
1774159855344998700,6.84799853515625,-0.7126420736432075,-2.0291928744882344,0.07371058490965515
1774159855364988700,6.86798876953125,-0.30875849065780636,-1.7195383117735386,0.4444591198060661
1774159855384979500,6.8879794921875,-0.46352702756524083,-1.637491896727681,0.8110837431728839
1774159855404969700,6.9079697265625,-0.44118776998519893,-0.7783399959564209,0.7339990421876311
1774159855424960500,6.92796044921875,-0.4459674054771661,-0.7853887454241514,1.1512440649189055
1774159855444950500,6.947950439453125,-0.27914427363872524,-0.5925380228817463,1.5718196933776138
1774159855464940500,6.9679404296875,0.3862076410412788,0.3440332176566124,1.2887053470641374
1774159855484931600,6.987931640625,0.6579343318998814,-0.03455401150882244,1.1547631058905272
1774159855504921600,7.007921630859375,0.6327250718414783,0.045783261531591415,1.083043512134999
1774159855524911600,7.02791162109375,0.8513163848400116,0.2083060658276081,0.6130003806740045
1774159855544902700,7.047902587890625,0.7284177349239588,0.5868336737602948,1.5989683970659971
1774159855564892400,7.067892333984375,1.014867363139987,1.0600006363302468,1.151844880356267
1774159855584882400,7.08788232421875,1.2367583022058009,1.1111123994082213,0.9040406246159225
1774159855604873700,7.107873779296875,0.9301905995905398,0.8054115427553653,1.1048957168504596
1774159855624863700,7.12786376953125,0.2622866623401642,1.0484545754432677,1.6187611850336192
1774159855644854500,7.1478544921875,0.7342576931238174,2.136934871804714,1.4425833648726343
1774159855664844500,7.167844482421875,0.06648583955420181,2.3549627057015896,0.6657834379650652
1774159855684834600,7.18783447265625,-0.1660755466078408,2.760218161562085,0.21601539809592066
1774159855704825600,7.20782568359375,-1.7281974190473555,3.929109380722046,-1.8923913714259861
1774159855724815600,7.227815673828125,-2.4941794532120225,-0.1680856991201639,-1.0286771311752498
1774159855744805600,7.2478056640625,-1.7389923693060874,-2.97897372521162,0.17177140189558265
1774159855764796400,7.26779638671875,-0.43457799645662304,-3.097590752285719,-1.2128648009210825
1774159855784786700,7.28778662109375,-0.1353249642362818,-2.553022102802992,-2.0432851127266884
1774159855804777700,7.30777783203125,0.035169513058662415,0.055339025384187696,-3.499158459544182
1774159855824767500,7.327767578125,-0.18058102355599404,1.7340578355133534,-2.723352365979552
1774159855844757500,7.347757568359375,-1.1356909603476524,2.501758364033699,0.06257321442142129
1774159855864748500,7.36774853515625,-0.7490624635457992,-0.12159808871150016,0.4374130737520754
1774159855884738600,7.387738525390625,-0.09511106380224227,-0.602704612109065,0.4122990907616913
1774159855904728600,7.407728515625,0.1343301262463443,-1.247870063328743,1.2102967039987444
1774159855924719600,7.4277197265625,-0.11586391070736571,-1.2759423116028308,1.2783144475616515
1774159855944709600,7.447709716796875,0.27284312766790386,-0.8438228142142296,0.6864248786512762
1774159855964699400,7.467699462890625,0.11429274326735175,-1.0815642333626747,-0.0015696604695171117
1774159855984690700,7.487690673828125,0.15949147377610207,-1.354911803421378,-0.4146665505453944
1774159856004680700,7.5076806640625,1.3684756338715554,-1.5872697759658096,-1.2231653187263756
1774159856024671500,7.52767138671875,1.8176152396440506,-0.950990811035037,-0.579392490908876
1774159856044661500,7.54766162109375,1.4700912572622298,-0.3160860570669174,-0.7546773808181285
1774159856064651500,7.567651611328125,1.264874974143505,-0.38945641370415685,-1.0128625261235982
1774159856084642600,7.587642578125,1.4546505270242691,-0.8736801923394203,-1.2555810760974884
1774159856104632600,7.607632568359375,0.9284989932417869,-1.3285130413174628,-0.48263965124897656
1774159856124622600,7.62762255859375,1.771098987662792,-1.1013298410624266,-0.1187960369028151
1774159856144613600,7.647613525390625,1.6542179906010628,-0.524406151419878,0.4556155968535691
1774159856164603600,7.667603759765625,1.2701999685585499,0.4522404943972826,0.2144561859551817
1774159856184593700,7.68759375,1.00305592931509,0.6379460213601589,-0.0985703374106437
1774159856204584700,7.707584716796875,0.5078817175984383,1.277745561632514,0.15038374595195053
1774159856224574500,7.727574462890625,0.3790460423162207,0.35476503955125804,-0.7234821051526814
1774159856244565500,7.7475654296875,1.5471055233597755,0.6957301018089056,0.623887393130362
1774159856264556000,7.76755615234375,1.3784440701782703,1.112276767012477,1.624966469414532
1774159856284545800,7.7875458984375,0.9571488222081214,1.186906768321991,1.9353513922303913
1774159856304537000,7.807537109375,0.20465740712694822,1.3609072444438934,1.6703788518071174
1774159856324527000,7.827527099609375,-1.3166542612195014,1.8932091175496577,1.323543290080875
1774159856344517000,7.84751708984375,-2.18110602196455,2.0062626652777196,-0.44234410041347144
1774159856364508000,7.8675078125,-2.181525708681345,0.41467093445956704,-2.182560604687035
1774159856384498000,7.887497802734375,-1.8590496583163738,-0.9155068251997232,-1.7382006344065069
1774159856404488200,7.90748828125,-1.2590823622167109,-0.7174222936570644,0.13351287331301717
1774159856424479000,7.92747900390625,-1.9964637403190135,-0.2737584889471531,0.30214035115968435
1774159856444469000,7.947468994140625,-1.5058850396990775,1.5868880831718444,-1.2958340299002826
1774159856464459000,7.967458984375,-1.2850924172639846,2.2784762628704307,-2.147725730410218
1774159856484449800,7.98744970703125,-0.8556406777799129,2.0500643976032733,-1.9445092428065835
1774159856504440000,8.007440185546875,-0.46521980295777315,0.2745212900131941,-0.6248739199496806
1774159856524431000,8.02743115234375,-0.4699520921766758,0.2920119385182857,-0.15450170266479252
1774159856544420900,8.0474208984375,-0.7706338054932653,0.1963625300556421,0.1371518508698791
1774159856564411000,8.067410888671875,-0.13627430085036904,-0.4967570969939232,1.0113787173066289
1774159856584402200,8.087402099609376,0.3059808426380157,-0.6561205604761838,1.1236950368013232
1774159856604392000,8.107391845703125,-0.6081517715990543,-1.37738140938282,0.2018354085087776
1774159856624382000,8.1273818359375,-0.67399465534091,-1.8122849845319986,0.1319460989203304
1774159856644373000,8.147373046875,-0.6314964068293571,-1.5659002402007578,0.09047076371572911
1774159856664363000,8.167363037109375,-0.4630149133246392,-1.2306675841152668,0.5241334719583391
1774159856684352800,8.187352783203124,-0.27408231407403943,-1.2567816840589046,0.6915886911552399
1774159856704344000,8.207343994140626,-0.2581132491130382,-1.2054922263264656,0.5059496535573155
1774159856724334000,8.227333984375,-0.3600794395070523,-0.9312544294297694,0.7827705257497728
1774159856744324000,8.247323974609374,0.007077354507707059,-0.8952759380757808,1.2045397479072213
1774159856764315000,8.26731494140625,0.5740659621238708,-0.8413590544492006,1.06389720537737
1774159856784305000,8.287304931640625,0.5123135625660419,-0.749298025867343,0.6112589438341558
1774159856804295200,8.307295166015624,0.23045476927161215,-0.2987409545123577,0.6793081054486334
1774159856824286000,8.327285888671875,0.0540624661097303,0.10321370623707771,1.5122471220768987
1774159856844276000,8.34727587890625,0.36700964062903074,0.6416127271741628,1.2594764761008321
1774159856864266000,8.367265869140626,0.48683308435082434,0.530952212062478,1.0839467445850373
1774159856884257000,8.387257080078125,0.2765022346973419,0.9642126961797475,1.0131665505714713
1774159856904247000,8.4072470703125,0.3212147251922637,1.8544056319028137,0.8252361871659756
1774159856924238000,8.427238037109374,1.435948164641857,1.7272779661148785,1.4035514772973954
1774159856944227800,8.447227783203125,1.2144961284499616,1.8602578650623558,0.6235267431244254
1774159856964217900,8.4672177734375,0.6918400355678052,1.7763930024176835,0.13609730031564832
1774159856984209200,8.487209228515624,-0.8846586824715137,1.9765794746756553,-0.7185746785625815
1774159857004199000,8.507198974609375,-0.9125812931418419,2.5592010836988686,-1.4173201826699078
1774159857024189000,8.52718896484375,-1.0887715343929827,0.9389560898482799,-0.9508503796510398
1774159857044180000,8.547179931640626,-0.47691491692662236,-1.0433090292483567,-1.929195792210102
1774159857064170000,8.567169921875,-0.092657240909338,-1.7851888878136872,-3.407582584130764
1774159857084159700,8.58715966796875,0.7010497624617069,-1.376535021686554,-2.5169512569904327
1774159857104151000,8.607151123046876,-0.018654504652693867,1.5374159039944408,-0.3571970890037715
1774159857124141000,8.62714111328125,-0.7587937300957739,1.3859510848075152,-0.1632546257019043
1774159857144131000,8.647131103515624,-1.1305005520977078,1.2078460959762334,0.4521184754528105
1774159857164121900,8.667121826171876,-1.0172352613151072,-0.11572013658881186,0.35570524301081896
1774159857184112000,8.687112060546875,-0.4769103138167411,-0.6639899786770344,0.13756269669309257
1774159857204102100,8.70710205078125,0.33835166488885876,-1.0114251137316226,0.8790748909898102
1774159857224093000,8.727093017578126,0.577928555836156,-1.2701280723661184,1.5220990923970936
1774159857244083000,8.7470830078125,-0.006539630901813507,-1.8371417778909205,1.2880050898402928
1774159857264074000,8.767073974609374,-0.5678677285382524,-1.7986486733675002,1.2537013998307287
1774159857284065000,8.78706494140625,-0.2977507744312286,-1.2231786896646022,0.5619285112150013
1774159857304055000,8.807054931640625,0.7842670479178429,-0.7649696422517299,-0.8388349427990615
1774159857324045000,8.827045166015624,0.8317454229295254,-1.1199199752420186,-1.5372893550053237
1774159857344036000,8.8470361328125,0.7362579270303249,-0.9917606283187865,-0.9715129361905157
1774159857364026000,8.867026123046875,0.9498188446462154,-0.9203560187965631,-0.1412643276900053
1774159857384016100,8.88701611328125,0.5159411054134369,-0.6667518446058035,0.24677958886772391
1774159857404007000,8.9070068359375,0.7679425205826759,-0.6089899759888648,0.015631576634943484
1774159857423997000,8.926996826171875,1.6190408787578343,-0.6460603542327881,0.25030688621103764
1774159857443987000,8.946987060546874,1.0710697273552416,-0.7689245173573493,0.6311027313366532
1774159857463978000,8.96697802734375,0.9490513674050569,-0.4420411719441414,0.2853659246325493
1774159857483968000,8.986968017578125,1.2314070043057204,0.03140343852341175,-0.9007144758678972
1774159857503958000,9.0069580078125,1.1020084709763527,0.22186697366833685,-1.1583388454854489
1774159857523948800,9.02694873046875,0.8189636827677488,1.0669921026527882,-1.1996553368665277
1774159857543939000,9.04693896484375,1.0523597661882638,2.323549330306053,-0.8869491314962505
1774159857563929000,9.06692919921875,0.15974398723244665,2.7853870896101,0.6009709201842546
1774159857583920000,9.086920166015625,0.40009938827157016,2.077342280629277,1.5374116662107407
1774159857603910000,9.106909912109375,-0.151786297093099,2.3170599682867525,1.2292490956194697
1774159857623900000,9.12689990234375,-1.0065724130034446,2.0509686529666182,0.8475734719846397
1774159857643891200,9.14689111328125,-0.22966800280809402,1.025022261929512,0.12099720020890235
1774159857663881000,9.166880859375,-1.388843883639574,-1.0802344460636377,-0.7004913979265839
1774159857683872000,9.1868720703125,-1.9669313563644886,-2.81559927252233,-0.943624812311679
1774159857703862000,9.206862060546875,-2.201096670591831,-2.2464883024573323,0.5961474455505609
1774159857723852000,9.22685205078125,-2.354587442648411,0.03593114508092403,1.069395218271762
1774159857743843000,9.246843017578126,-2.3080758668422696,1.0090811809539795,0.8856092611946165
1774159857763833000,9.2668330078125,-1.5697463942348957,2.532456284636259,-0.40713593584485347
1774159857783823000,9.286822998046874,-1.597635102635622,1.7998510348945855,-1.5969566188521682
1774159857803814000,9.30681396484375,-0.7790870149314403,0.7705717000424861,-1.8506860268577932
1774159857823804000,9.326803955078125,1.0475456439048052,0.8778174382746219,-1.0771949322372674
1774159857843794200,9.346794189453124,1.3025801431596278,0.717674807113409,-0.2271707060996443
1774159857863785000,9.366784912109376,-0.7688666496902704,-0.8437240300148725,1.437833832257986
1774159857883775000,9.38677490234375,-0.7102279982388019,-1.363871354946494,1.1914771449774504
1774159857903765000,9.406764892578124,-0.45853287253975866,-2.1704273915618657,0.529727419507876
1774159857923756000,9.426756103515626,-0.7354980485737324,-2.0755787780880928,-0.21018742259480058
1774159857943746000,9.44674609375,-0.5806161144196986,-2.0378367841929195,-0.27262020563222467
1774159857963736000,9.466736083984374,-0.09184592452645302,-1.9798761781334875,0.7122975710544734
1774159857983727000,9.48672705078125,-0.2357593054205179,-1.6393021610200404,1.1920297373589128
1774159858003716900,9.506716796875,-0.20862287669181823,-1.4947048895150423,0.781274807299301
1774159858023707000,9.526706787109376,0.04825171573804691,-1.3489520182341337,0.8583828891601413
1774159858043698200,9.5466982421875,-0.7378811443179846,-0.616554273763299,0.6039871992655098
1774159858063688000,9.56668798828125,-0.5036895631382241,-0.8052987300306558,0.8401396687220781
1774159858083678000,9.586677978515626,0.15211952023599296,-0.15415361987948417,1.1200400944903492
1774159858103669000,9.6066689453125,0.4226449455460533,0.17360300123691558,1.2215230314120649
1774159858123659000,9.626658935546875,0.5836813472092152,0.4380307672590017,1.0083952445164321
1774159858143649000,9.64664892578125,0.5497422892609611,0.6917945159256458,0.8549341369457543
1774159858163640000,9.66664013671875,-0.09047872782647609,1.1758528748661279,1.276258099553734
1774159858183630000,9.686630126953125,0.45350130811333655,1.4288941544771194,1.2453634873352943
1774159858203619800,9.706619873046876,0.2775169646978378,1.9769412937253712,0.0910499518431723
1774159858223611100,9.726611083984375,-0.1556336293041706,2.5780501610755917,-1.7664742504715918
1774159858243601200,9.74660107421875,-0.32127310431599615,2.6353590252280235,-2.344046905542165
1774159858263591200,9.766591064453126,-0.8353168516755104,4.246416504016518,-0.8209427277557552
1774159858283580400,9.786580322265625,-1.634153692215681,2.738302682352066,-0.4472803877718746
1774159858303570200,9.806570068359376,-1.466542040348053,-1.154679153934121,-1.8128825120337306
1774159858323560200,9.826560302734375,-0.842057558107376,-2.6942642186611887,-1.882049279501289
1774159858343550500,9.846550537109374,-0.48172728564441203,-3.3985978981643914,-1.2033403089895844
1774159858363541200,9.866541259765626,0.7510591903209686,-0.9636363575965166,0.2567354579538107
1774159858383531300,9.88653125,0.6150549751162528,0.9975631771177053,-0.29651611806973815
1774159858403521300,9.906521240234374,0.010322693104483187,1.667852548199892,-1.6930245449878274
1774159858423512600,9.9265126953125,-0.3699398488620296,1.2249801861286163,-1.7819424532383679
1774159858443502300,9.94650244140625,-0.5303618084212764,0.5212152464240789,-1.3914235248692333
1774159858463492400,9.966492431640624,0.4420727361261844,-0.30497838759720325,-0.4557477718658745
1774159858483483400,9.9864833984375,0.751129332947731,-0.029221418309211728,0.3181172706335783
1774159858503473400,10.006473388671875,0.7143664132177829,0.0950531961351633,0.597930967966467
1774159858523463200,10.026463134765624,0.8117873613975942,-1.0535907692879438,0.17081256680078805
1774159858543454500,10.046454345703125,0.8870300877779722,-1.6944412799179553,-0.3092218703858554
1774159858563444500,10.066444580078125,1.2371604532659053,-2.4628175157427785,-0.597820054937899
1774159858583434200,10.086434326171876,1.3034072416335343,-2.1158786397725344,-0.3765071349557489
1774159858603425300,10.10642529296875,1.457179753240943,-2.083983618339896,-0.06866115603297948
1774159858623415300,10.126415283203125,1.4626450329095124,-1.886498221734166,-0.9089151718497276
1774159858643405300,10.1464052734375,1.3579577469885349,-1.5595055707275867,-0.38870004237890243
1774159858663396400,10.166396240234375,1.4413392100304365,-1.6943045017957687,0.10461093274913727
1774159858683386400,10.186386474609375,1.507611132839322,-1.4773627095699309,0.0035005554668605327
1774159858703376400,10.20637646484375,1.6968718680657446,-1.1184487336456774,0.2954844369344413
1774159858723367400,10.226367431640625,1.3030448380619286,-0.8372463584333658,-0.2616786134444177
1774159858743357400,10.246357421875,0.7921605045814066,-0.9598036475658416,-0.5128730961449444
1774159858763347500,10.266347412109376,1.379073015731573,0.16527473335266113,-2.0760335361182687
1774159858783338200,10.286338134765625,0.39554654727280136,1.2231366040885447,-1.9017808388009667
1774159858803328300,10.306328369140624,0.6220535287667065,1.8035142335772514,-0.7988850635960698
1774159858823318300,10.326318359375,3.64733592762351,1.5836124225020407,0.8726705038402229
1774159858843309300,10.346309326171875,6.593293518418073,1.763738103505969,0.8305701686050743
1774159858863299300,10.36629931640625,-3.1189211250841615,2.7449130404025315,1.2506962266653776
1774159858883289300,10.386289306640625,-3.6560260145574808,3.8891543869525194,0.8696086320515721
1774159858903280400,10.4062802734375,-2.188796576467156,3.5617461408823727,-0.5109860037567093
1774159858923270400,10.4262705078125,-1.1719500222086905,-0.35737902144193645,-0.5091329597685486
1774159858943260400,10.446260498046875,-1.6663146711081265,-2.2742776421368123,0.5769223744682968
1774159858963251500,10.46625146484375,-0.9433972871661186,-1.758228984695673,1.4610669699378311
1774159858983241200,10.4862412109375,-1.2289695480257272,-0.05365092616677284,1.6153136749282477
1774159859003231200,10.506231201171875,-1.6990940741598606,2.0131857425391675,0.3539146697996184
1774159859023222500,10.526222412109375,-1.0013239909559488,3.157937376698851,-1.8796356424883007
1774159859043212300,10.54621240234375,-1.1670476371198892,2.7524130407691,-2.548500533725321
1774159859063202300,10.566202392578125,-1.041751278412342,0.5558405696034431,-1.384371706661582
1774159859083193300,10.586193359375,0.12000935821533203,-0.0807756644576788,-0.4991482299141586
1774159859103183400,10.606183349609376,0.4913175362884998,-0.5092617737799883,-0.30171105636432766
1774159859123173000,10.626173095703125,0.3291840235710144,-1.1756278339385986,-0.4338080715300515
1774159859143163400,10.646163330078124,-0.3480319319039583,-1.5895324602007865,-0.5386733443664387
1774159859163154400,10.666154541015626,-0.7143886981148272,-2.1519652676761147,-0.22582093545850365
1774159859183144400,10.68614453125,-0.581009570716694,-2.4071961662858725,0.20389058747291564
1774159859203134200,10.70613427734375,-0.35898704116046426,-2.3359388562798498,0.5513933809362351
1774159859223125500,10.72612548828125,0.2734551220864057,-2.222121338441968,0.882532191836834
1774159859243115500,10.746115478515625,0.7100912201166153,-1.8495570228278635,0.9895141645662486
1774159859263105300,10.766105224609374,0.4672931021004915,-1.494548822170496,0.9265781081818044
1774159859283098600,10.7860986328125,0.05111468568742275,-1.338471540752053,0.8921887857154012
1774159859303088600,10.806088623046875,-0.041193011131882666,-1.081742512539029,1.0721326073464006
1774159859323078700,10.82607861328125,0.28449966319203374,-0.5583522601634263,1.0877420452147721
1774159859343069400,10.8460693359375,0.5614578249633312,-0.2203138990074396,0.9033971390806138
1774159859363059500,10.8660595703125,0.6050585548240691,0.06788461870253086,0.7925491385728121
1774159859383049500,10.886049560546875,0.6254244665045291,0.38683074137568474,0.5132116073843092
1774159859403040800,10.906040771484374,0.44547932969927784,0.8642389947772026,0.44412638072036204
1774159859423030500,10.926030517578125,0.5958978547036647,1.2730021664977074,0.3265282483652234
1774159859443020500,10.9460205078125,1.1378547873180358,1.6239619685471056,0.29185156032480297
1774159859463011600,10.966011474609376,1.7061890008568763,2.3085832318425177,-0.14308087559267876
1774159859483001600,10.986001708984375,1.3897048843830824,3.3881104064196346,-0.6386566538475453
1774159859502991600,11.00599169921875,0.3704056762754917,3.501464982920885,-0.08912417141236365
1774159859522982700,11.025982666015626,-0.9829337632626295,3.977664445054531,0.34223858932480217
1774159859542972700,11.04597265625,-1.629974360704422,3.575699262911081,-0.5827173975478858
1774159859562962400,11.06596240234375,-1.7909914366126058,1.796426321142912,-1.13396771675162
1774159859582952400,11.085952392578125,-1.213823928276822,-1.4903344193458556,-1.4111153366804121
1774159859602943700,11.10594384765625,-0.8625760300010442,-3.598488017824292,-1.8339618326805531
1774159859622933500,11.12593359375,-0.12554711859822273,-4.553847545462847,-1.389628896537423
1774159859642923500,11.145923583984375,0.3381371453553438,-3.448215623292327,-0.6282789791528135
1774159859662914600,11.16591455078125,-0.5638596984732895,-1.4938520720779895,-0.5072138282742351
1774159859682904600,11.185904541015624,-1.6117618276655672,0.9036924687653779,-0.480930509243533
1774159859702894600,11.20589453125,-1.9106606030881403,1.3113099775820969,0.30094949740730226
1774159859722885600,11.2258857421875,-1.3714245468050241,1.0514069955080747,0.6548235064029693
1774159859742875600,11.245875732421876,-1.0821492667090147,0.3810018890917301,-0.4161958059392869
1774159859762865700,11.26586572265625,0.2508844669032842,0.27648177643120286,-0.6823042185246944
1774159859782856700,11.285856689453125,1.5877017376422882,-0.778619397419691,-0.26541831142939626
1774159859802846700,11.3058466796875,2.208604854264855,-0.8175187446564436,0.4128525599259883
1774159859822836700,11.325836669921875,1.3609382241040466,-0.5284370143711566,-0.010904621178284286
1774159859842826500,11.345826416015624,1.0757838233303278,-0.797603499352932,0.3015811463743448
1774159859862817500,11.365817626953126,0.4066863654464483,-0.47812370819449423,0.4181966243676841
1774159859882807600,11.3858076171875,1.3741291295886038,-0.619459932076931,0.7169846328921615
1774159859902797800,11.4057978515625,1.3523884224236011,-0.6040256315797567,0.4897871118508279
1774159859922788600,11.42578857421875,1.024289929066971,-1.0277595779389141,0.08859671347215771
1774159859942778600,11.445778564453125,1.0753010813146828,-1.448723475062847,-0.3526226206950843
1774159859962768600,11.4657685546875,0.8606267225641757,-0.7436182266652583,-0.2017772485807538
1774159859982759700,11.485759765625,1.0379675951551646,-0.7105027235269546,-0.29060134106799956
1774159860002749700,11.505749755859375,1.4886632712632417,-1.2785673994094133,-0.42212914151102304
1774159860022739700,11.52573974609375,1.6048586241483687,-1.5518676231950521,-0.25901385121457277
1774159860042730500,11.54573046875,1.4192518813848494,-1.2388590738773346,0.6434087437454611
1774159860062720500,11.565720458984375,-0.298622881090641,-0.03907353475987911,-0.4839368514526635
1774159860082710500,11.58571044921875,-1.135196966285631,1.0171604425132275,-1.099931664702296
1774159860102701600,11.60570166015625,-0.8818488126825541,1.5292220761448143,-1.150292901673913
1774159860122691600,11.625691650390625,0.4490817381054163,3.911162220621109,-0.41446956666857004
1774159860142681600,11.645681640625,-1.0040735819250344,6.283049173116684,0.8484006435237824
1774159860162671600,11.665671630859375,-1.377713417816162,3.066170947149396,0.8531871471479534
1774159860182662400,11.685662353515625,-1.2693448130339384,-0.6701356418251991,-0.10866444592364131
1774159860202652700,11.705652587890626,-1.3329554076790808,-1.8557248978078364,-0.3832027601368725
1774159860222642700,11.725642578125,-0.301337912202999,-3.8054789094001054,0.927638138628751
1774159860242633500,11.745633544921875,-0.6560913343816995,-2.09317113340199,1.9093413371831178
1774159860262623500,11.76562353515625,-1.4410814358770847,0.3805658357620239,1.508125512102246
1774159860282611200,11.785611083984374,-2.165142729157209,2.365933597049117,0.8512195003367959
1774159860302602200,11.805602294921876,-2.1785072376430032,2.9998277126699686,0.606144304234162
1774159860322592300,11.82559228515625,-1.5253887815922498,2.0869073968321086,-0.15052271603122352
1774159860342582300,11.845582275390624,-1.2161403885256499,0.6719990976095199,-0.9616730946995318
1774159860362572300,11.865572265625,-0.6584919657826424,0.03900514569878578,-0.8485930973559618
1774159860382563000,11.88556298828125,0.5810271063733845,-0.5349953499734401,-0.33019506377708163
1774159860402553300,11.90555322265625,0.9106774322818965,-0.5936889464825391,0.14721227630898356
1774159860422543400,11.92554345703125,0.11366093903668224,-1.1333341680884361,0.7968179749984293
1774159860442534100,11.9455341796875,-0.33740247440524396,-1.7982412616103887,0.8588084210958331
1774159860462524200,11.965524169921874,-0.15142974787354468,-2.356481293570995,1.0887238958589731
1774159860482514200,11.98551416015625,0.07023439669907093,-2.6568139011889693,1.297025723902881
1774159860502505200,12.005505126953125,0.42114517197497187,-2.7445845391005275,1.4450804423853754
1774159860522495200,12.0254951171875,1.434247205942869,-2.375941196322441,1.4419891983717679
1774159860542485200,12.0454853515625,0.7200684242516756,-1.9833605131179093,1.0505204219318927
1774159860562476000,12.06547607421875,0.0164303257972002,-1.6782710663616656,0.7541774684719741
1774159860582466000,12.085466064453126,-0.19450901114344596,-1.1273913340359925,0.8771793595667928
1774159860602456300,12.105456298828125,-0.3546468930643052,-0.7805763767063617,0.891059635554999
1774159860622446300,12.1254462890625,-0.8694942849569022,-0.17841770804226398,1.6830610771171748
1774159860642437000,12.14543701171875,-1.106222873800993,0.7207417934685945,2.238763845685124
1774159860662427100,12.16542724609375,-1.568251771762967,2.4934131450146437,2.469227382785082
1774159860682417200,12.185417236328124,-0.06384542631432413,4.04976697371304,1.5084738871484995
1774159860702408200,12.205408203125,1.0980144329041241,4.7980333184450865,0.718467418795824
1774159860722398200,12.225398193359375,0.05668875949271023,9.499778930523991,-3.1880478528022764
1774159860742388200,12.24538818359375,-0.8604992237269878,11.317477756798267,-3.0422102258473633
1774159860762379300,12.265379150390626,-2.0181272905945775,3.869879777640104,0.1739415124762803
1774159860782369000,12.285369140625,-1.4696201326191425,-2.0886656386762854,0.20283333350494503
1774159860802359000,12.305359130859374,-0.6050146426171064,-4.6440801895737645,-0.5363331744484603
1774159860822349300,12.325349365234375,-0.2648538824796676,-8.238540851578115,-2.8520465504318473
1774159860842340400,12.34534033203125,0.038861937835812564,-7.1516311655342575,-2.6839459460034965
1774159860862330000,12.365330078125,0.3977332436621189,-4.404162010908126,-0.9248819717884064
1774159860882320100,12.385320068359375,-0.1059889431040734,-1.5551625730872154,-0.23866152966804802
1774159860902311400,12.4053115234375,-0.42158802037164567,-0.09096621908247471,0.0784453218139708
1774159860922301200,12.42530126953125,-0.2792931805901229,3.606369126462936,0.4950364837463945
1774159860942291200,12.445291259765625,-0.18426117337346076,2.894513819283247,-0.5668897138189524
1774159860962282200,12.4652822265625,-0.040472734033316374,1.38140993424654,-0.7951561062008142
1774159860982272300,12.485272216796876,0.9679733638875185,0.12145546537041664,-0.48538924221806223
1774159861002262000,12.505261962890625,1.1852233452796936,-0.3126829706251621,-0.5521125620562582
1774159861022252300,12.525252197265624,0.9031628919333219,-1.014184641572833,0.3528954462870955
1774159861042243300,12.545243408203126,0.7502145561903715,-0.9115425977438688,0.7467224762909114
1774159861062233000,12.565233154296875,1.0687192187063395,-1.5383616604119539,0.48457493016049263
1774159861082223000,12.58522314453125,1.3964467598587273,-1.4737421809852123,0.5395867694169283
1774159861102214400,12.60521435546875,1.3595600676186381,-1.6158751082032918,-0.2682755274914205
1774159861122204400,12.625204345703125,0.8691257439054548,-1.7740958313912152,0.8417577714432031
1774159861142194200,12.645194091796874,0.8886217408835887,-1.4664303966671228,0.5716794323135167
1774159861162185200,12.665185302734375,1.5753811852514743,-1.1850105793118477,-0.8125663098808378
1774159861182175200,12.68517529296875,1.7267251545377074,-0.6877344268798827,0.6621895781915634
1774159861202165200,12.705165283203126,1.883666359309107,-1.6334014125436545,0.3647995268315077
1774159861222155300,12.7251552734375,1.0709247659265995,-1.0369289728224278,0.08381276713125407
1774159861242146300,12.745146240234375,0.10330912943556904,-1.0932593473315237,-0.526612063966319
1774159861262136300,12.76513623046875,0.5516216367341578,-0.29781448731720445,-0.5900215100161731
1774159861282127600,12.785127685546875,1.2648985011495648,1.0072475357860327,-0.8564929837603121
1774159861302118700,12.80511865234375,1.727990352167934,2.784135043722391,-0.15886892143096773
1774159861322108400,12.8251083984375,-0.34841830087304115,2.753854471749067,1.6262287444353103
1774159861342098400,12.845098388671875,-2.6228520103543995,3.333179961836338,1.4732032518029212
1774159861362088400,12.86508837890625,-1.6407991215795277,5.252690226334333,1.1389099223941563
1774159861382079500,12.88507958984375,-1.02206048951447,3.8307343466877937,0.3067784958217293
1774159861402069500,12.905069580078125,-1.4696516968011855,0.4468938726723194,-0.6486245056323706
1774159861422059500,12.9250595703125,-0.6933866804879159,-2.2613632155060768,-0.06623350419437046
1774159861442050600,12.945050537109376,-1.5688941613197325,-3.591685936594009,0.5724300680177286
1774159861462040300,12.965040283203125,-2.240600997984409,-2.5716385404676196,0.5444632163468748
1774159861482030600,12.985030517578124,-1.607010249224305,0.631612142163515,1.1085605960335583
1774159861502021600,13.005021728515626,-0.8263790735907852,2.659956875389814,-0.39919005487430836
1774159861522011400,13.025011474609375,-1.2627521367706358,2.9511621737003324,-2.5018653315395114
1774159861542001400,13.04500146484375,-1.3847025460511446,1.3530325655460358,-1.0472971490364522
1774159861561991400,13.064991455078125,-0.40511692417263984,-0.13874211573600767,-0.10472253989744931
1774159861581982700,13.084982666015625,0.4556248761385679,-0.37691374299526215,-0.29495487836869433
1774159861601972500,13.104972412109374,0.28010413164682685,-0.8482786245793104,0.11031276111993939
1774159861621962500,13.12496240234375,-0.30454511074647306,-0.9764975927352905,0.3217076232757419
1774159861641953500,13.14495361328125,-0.34614465685263274,-1.477120132985711,0.31733660511728373
1774159861661943600,13.164943603515624,-0.2183047511421144,-1.889299250629544,0.8363533551163971
1774159861681933300,13.184933349609375,-0.17672843978106975,-2.2380752788990734,1.2301204716265202
1774159861701923600,13.204923583984375,0.4672748357914388,-2.3560236129313705,1.348992350244522
1774159861721914600,13.22491455078125,0.9552157352536916,-2.1461545355707408,1.4174705509260297
1774159861741904400,13.244904296875,0.8969161795634776,-2.1419880635410546,1.421003985749185
1774159861761894400,13.264894287109374,0.6538419480197131,-2.0854431694984434,1.495488733369112
1774159861781885700,13.2848857421875,0.31904439541585744,-2.2559417749792336,1.2996248004853725
1774159861801875700,13.304875732421875,0.5263357312429696,-2.0457968032866716,1.179933495243266
1774159861821865500,13.324865478515624,-0.14707169879451393,-1.8773025233656166,1.1402814299430697
1774159861841855500,13.34485546875,-0.3488086884301156,-0.5652548791587353,0.7950991883818059
1774159861861846500,13.364846435546875,0.31511341264247894,2.8264298786163327,1.867764295169711
1774159861881836300,13.384836181640624,0.5669120717812329,3.885432151558995,1.062225691968575
1774159861901826600,13.40482666015625,0.7604035033799708,4.017459279826284,-0.3509625785283744
1774159861921817600,13.424817626953125,-0.8103367241978645,4.225572453430295,-1.521100729009509
1774159861941807600,13.4448076171875,-0.6966326036065816,5.456661477828026,-1.8435599743701516
1774159861961797400,13.46479736328125,-1.4327783024340868,4.442772604331374,-1.864896776909381
1774159861981787400,13.484787353515625,-0.9139817345242947,0.6747066030025481,-3.250841578106582
1774159862001778700,13.50477880859375,0.14933255639858542,-1.148019111523032,-4.467323400481045
1774159862021768400,13.5247685546875,0.5478127459704876,-1.001812066733837,-2.80047359958291
1774159862041758500,13.544758544921875,-0.8118255014508963,-1.2230308056265116,-2.234528253941983
1774159862061749500,13.56474951171875,-1.3046551958680153,-0.7949222974449396,-1.6166047376520931
1774159862081739500,13.584739501953125,-0.8053239375371486,0.5972966155856847,0.1381683344360441
1774159862101729300,13.604729248046874,-0.40787754799239334,-0.09746376440823078,0.26030984584186223
1774159862121719600,13.624719482421876,-0.10344283881783485,-1.0608569608986378,-0.028540961764380333
1774159862141710600,13.644710693359375,0.01578106810823083,-1.5967384460568428,-0.09836743524968623
1774159862161700600,13.66470068359375,0.27989487281031905,-1.5301912134379148,0.1446075006380677
1774159862181690400,13.6846904296875,0.2411065116673708,-1.2441560112416743,0.06255655554756522
1774159862201681700,13.704681640625,0.6336562152117491,-1.3841115944206714,-0.16271094727925955
1774159862221671700,13.724671630859374,1.308490243986249,-1.2793991740584372,-0.27992205307818946
1774159862241661400,13.744661376953125,0.7972060244679451,-0.6680266868472099,0.3236821747517213
1774159862261651500,13.7646513671875,0.4233541532613337,-1.1414368105232715,-0.4020814654668793
1774159862281641500,13.784641357421876,0.9822830442689359,-0.6367337229609489,-0.2506544210070744
1774159862301631500,13.804631591796875,1.2180635386079548,-0.15335224036872386,-0.21695709939282387
1774159862321621500,13.82462158203125,1.225804946514964,-0.638117286273837,0.06159253282099962
1774159862341612300,13.8446123046875,1.4112107598789037,-0.6066004505038262,0.00803125769905746
1774159862361602300,13.864602294921875,1.4110755891919136,-0.544076482051611,-0.06072276424914598
1774159862381592300,13.88459228515625,1.1937803073532878,-0.8022036866247654,-0.07712324289735406
1774159862401582600,13.90458251953125,1.111673102030903,-0.7822597997486591,-0.23764245228599756
1774159862421573400,13.924573486328125,1.1348780365295708,-0.20916648204922675,-0.5653593624465167
1774159862441563400,13.9445634765625,1.1013187351465226,0.035622517523169514,-1.0065366110377012
1774159862461553400,13.964553466796875,1.0500764775566755,0.32068565981686115,-1.0032867423962801
1774159862481544400,13.98454443359375,-0.14861761306226254,1.1359160012751817,-0.7583104035582393
1774159862501534500,14.004534423828124,-1.5725328100830316,3.546916820541024,0.012939524539373814
1774159862521524500,14.0245244140625,-1.895771807644516,4.940497085052728,0.4787943739976734
1774159862541514500,14.044514404296875,-1.3606845416039228,3.948413216128945,-0.08219710296238772
1774159862561505300,14.06450537109375,-1.0975080908171833,0.39117023188471794,0.11896531078880652
1774159862581495300,14.084495361328125,-0.1524012232542038,-2.109913009366393,0.12414783712639473
1774159862601485600,14.104485595703125,-0.5113145415913314,-2.603634099665284,0.19733042523972688
1774159862621476400,14.124476318359376,-1.7782471058517693,-2.3570663999825716,0.18701470986530183
1774159862641466400,14.14446630859375,-0.056525604820251464,-1.0750520749896764,0.5391845452915877
1774159862661456400,14.164456298828124,-1.2978952002137898,1.196902677157521,-0.04538713835347444
1774159862681446400,14.1844462890625,-1.1797726786583662,0.8288830192357302,-0.35387243809308855
1774159862701437400,14.2044375,-1.0605488447975366,0.2882043629288673,-0.2504131778634153
1774159862721427500,14.224427490234374,-0.9426133702468127,0.49841889272630213,-0.1167397254275158
1774159862741417500,14.24441748046875,-0.8502652683518827,-0.2132557971894741,0.35242969193886964
1774159862761408300,14.264408203125,-0.411594741884619,-0.08308277235627173,0.211494833665248
1774159862781398300,14.284398193359374,0.4293576314598322,-0.37398002763092514,0.4183876899603754
1774159862801388500,14.304388427734375,0.05807166521847248,-1.0203104309767483,0.4040721278274432
1774159862821378600,14.324378662109375,-0.04423530143722892,-1.6215525693178177,0.6304187676604837
1774159862841369300,14.344369384765624,0.3070851506181061,-1.1277519840419292,0.6404303855217993
1774159862861359400,14.364359375,0.09324600058272481,-1.742227113443613,1.1329906153477727
1774159862881349400,14.384349365234375,0.4725048453994095,-1.6088813037931917,1.5676896078355609
1774159862901340400,14.40434033203125,0.8560913441568613,-1.5575824937105178,1.9216326634794472
1774159862921330400,14.424330322265625,0.8886053742706775,-2.008335379898548,1.6618734737902878
1774159862941320400,14.444320556640625,1.0624581124849617,-1.8017910630464553,1.6197823447749018
1774159862961310500,14.464310546875,1.127903375211358,-2.262293189832568,1.5964873939052224
1774159862981301200,14.48430126953125,0.8123090471841394,-1.7032786663681267,1.541369610056281
1774159863001291300,14.504291259765624,0.6329886912137269,-1.185713174623251,1.3109005199983714
1774159863021281500,14.524281494140626,0.5119419527746737,-0.6976163539469241,1.0026287899442017
1774159863041272300,14.544272216796875,0.5136183615542947,1.6349638395547865,0.8487427349597215
1774159863061262300,14.564262451171874,0.5176249668471515,3.7225989661395547,0.5602582033826038
1774159863081252400,14.58425244140625,0.30526947949826716,5.4516544633209705,-0.37534631101544946
1774159863101242400,14.604242431640625,-0.7365905199855566,9.290250629425048,-1.9133724923953412
1774159863121233400,14.6242333984375,-0.9088801005363464,12.273725173187255,-2.0872413049615917
1774159863141223400,14.644223388671875,-1.8521581452369689,4.858500354367495,-0.5442416825506836
1774159863161213400,14.66421337890625,-2.0038877528399226,-2.121834333306551,-0.9071589758321642
1774159863181204200,14.684204345703124,-1.7116560340911149,-5.321417725601792,-2.210903486596048
1774159863201194200,14.7041943359375,-1.2850444864690302,-6.7680182171612975,-3.4976781578585503
1774159863221184500,14.7241845703125,-0.3277589592039585,-6.521365761804581,-3.7477842608004805
1774159863241174500,14.744174560546876,0.11769450540170073,-2.5205875676661726,-2.131405586989224
1774159863261165300,14.764165283203125,-0.2107019479881972,-0.20671675080955026,-0.7846903148312121
1774159863281156000,14.784156005859375,-0.2069451527379453,1.468384453344345,0.35396186994221057
1774159863301146000,14.80414599609375,0.34119653292596336,1.3050035709142684,0.7304389385532587
1774159863321135900,14.824135986328125,-0.38968481563255186,1.1142600497841835,0.1933440224846825
1774159863341127200,14.844127197265625,-0.0499228455543518,0.3105833679974079,0.5869485688442364
1774159863361117200,14.8641171875,0.19877543641626833,-0.2098129632592201,0.10458079333920031
1774159863381107200,14.884107177734375,0.14089900150895118,-0.4038455890625715,-0.502832106058672
1774159863401098000,14.904097900390624,0.2804741340029985,-0.31750702978074546,-0.30591333035975693
1774159863421088000,14.924087890625,0.6277700797826051,-1.373518888735771,-0.1895627503803
1774159863441078300,14.944078369140625,0.38998365244865413,-0.9400000459432601,-0.086370781050995
1774159863461068000,14.964068115234374,1.0259363080345094,-0.8197358361840248,-0.07409578483495861
1774159863481059000,14.98405908203125,1.7501516228325664,-0.7497656433790921,0.04031202704627067
1774159863501049000,15.004049072265625,1.788179301801324,-1.1432628569066523,0.06766701216278598
1774159863521039000,15.0240390625,1.4986089112162588,-1.215172493341565,-0.5595350402072071
1774159863541030100,15.044030029296875,1.2198714648127555,-1.6361235309839248,-0.6201391465127468
1774159863561020200,15.064020263671875,1.1306431754387913,-1.5295254430055618,0.10371469629546627
1774159863581010200,15.08401025390625,0.9884319222874939,-1.6026982312440872,0.06618176030740142
1774159863601000200,15.104000244140625,0.6653351096756756,-0.9239432296335697,-0.17911752687469124
1774159863620991000,15.123990966796875,0.15412380926311015,0.23083003232479093,0.01542436362504959
1774159863640981200,15.143981201171876,-0.08104702874496579,2.041284294298291,0.12412333287280052
1774159863660971300,15.16397119140625,0.6580477291464806,2.8508061949819323,-0.30203933847062286
1774159863680961000,15.1839609375,2.0257032788068057,2.8396611161112784,0.8761785119611769
1774159863700952000,15.2039521484375,1.7039958747267723,2.04029820587039,2.3899831656783816
1774159863720942000,15.223942138671875,-1.4762562096327543,1.8779408212691544,2.686535670235753
1774159863740932000,15.24393212890625,-1.3598323086887598,3.336564928099513,2.314447301570326
1774159863760923100,15.263923095703126,0.08565686062797903,2.004184105437994,-0.31001477432921526
1774159863780913200,15.2839130859375,-1.2788859638392924,0.21276187619268894,0.26329403101811183
1774159863800903200,15.303903076171874,-2.5491455536305905,-3.423615435042977,-1.8715777159780262
1774159863820893000,15.323892822265625,-1.8740151722580194,-3.5803836213350295,0.23061140287173912
1774159863840884200,15.34388427734375,-0.764240816520527,-1.8306921633601188,1.4586941033266483
1774159863860874200,15.363874267578124,-1.9103782790154218,-0.6262386324316263,0.4168642432527616
1774159863880864300,15.3838642578125,-1.2181738671146332,0.9190081113189459,-0.3217184734633192
1774159863900855000,15.40385498046875,1.190772869165614,1.497683613064885,-0.4322391051802784
1774159863920845000,15.423844970703126,-0.1792482405822724,1.6198241380900145,-1.0469598068408668
1774159863940835000,15.4438349609375,-1.4389233810603619,1.2300059053361414,-1.5383710127621888
1774159863960825000,15.4638251953125,-1.4610428584098816,0.48739656345248217,-0.7209678573094308
1774159863980816100,15.483816162109376,-0.3807943107556552,0.3606114274919033,0.09037468293011187
1774159864000806100,15.50380615234375,-0.05631386176571249,-0.2642576701521873,1.2488386160999536
1774159864020796200,15.523796142578124,-0.39839389952793713,-0.4114671699821949,0.7653670440714806
1774159864040786000,15.543785888671875,0.21530030862912533,-1.1496972738683222,0.3189120012078434
1774159864060777200,15.563777099609375,0.3363976082116365,-1.7516618812650442,0.357311289967969
1774159864080767200,15.583767333984374,0.5208307771511376,-2.490402272760868,0.6662478406064212
1774159864100757200,15.60375732421875,0.10006824781820177,-2.5440344942271707,0.8914400131747126
1774159864120748000,15.623748046875,0.6843138047814369,-2.437523500010371,0.8517064801361411
1774159864140738000,15.643738037109374,0.3649726914413273,-2.271722112435102,0.5978553454469889
1774159864160728000,15.66372802734375,0.16224997870400548,-1.9305618198662995,0.24545937311463056
1774159864180718000,15.683718017578125,0.5960486613512039,-2.3555817143827675,0.7808948680710047
1774159864200709000,15.703709228515624,0.4540091115050018,-1.5627105042487381,0.8779309816516935
1774159864220699100,15.72369921875,0.059789575052261346,-0.38265257890820503,1.4918708351328969
1774159864240689200,15.743689208984375,-0.11645254251658915,0.4864040452837944,1.880333415494114
1774159864260679000,15.763678955078126,0.6241125801883638,1.8860609993606805,2.116992738494277
1774159864280670200,15.783670166015625,1.3661835774116218,3.0948399922728536,0.8908958232954144
1774159864300660200,15.80366015625,2.3123452147245405,4.628004668563604,-0.81223576275222
1774159864320650200,15.823650146484376,-0.5693782426990568,6.377530706843733,-1.4909545970708131
1774159864340641300,15.843641357421875,-1.005327308313176,9.995247156751155,-2.9521617061316965
1774159864360631300,15.86363134765625,-3.1259803959459065,9.143312932273744,-3.988206881856918
1774159864380621300,15.883621337890625,-1.5529390518188475,0.1466536195129156,-1.7248792344100772
1774159864400611000,15.903611083984375,-0.07013787752203643,-4.666211941882968,-2.3671561245813963
1774159864420602400,15.923602294921874,-1.3071318151146172,-4.7918227733671666,-3.395243034778535
1774159864440592400,15.94359228515625,0.6141415865983814,-3.549938798710704,-2.24939249946624
1774159864460582100,15.96358203125,0.4439076234031468,-3.551539804166555,-1.2839337487481535
1774159864480572200,15.983572265625,-0.5107920520871877,-3.0918893257737157,-0.512644913412258
1774159864500563200,16.003563232421875,-1.4895815551519394,-2.494208679306507,0.38814379673562943
1774159864520553200,16.02355322265625,-0.9691758715450763,-1.5179069014042614,0.652008887373656
1774159864540543200,16.043543212890626,0.16985080909654496,0.06503215188086033,0.10284447106588632
1774159864560534300,16.0635341796875,1.1066327697761356,1.0558306571692229,-0.7111928246829659
1774159864580524300,16.083524169921876,0.32069515829756856,1.2100275316685438,-1.5443021563768387
1774159864600514000,16.10351416015625,-0.03188303873389959,0.562646157965064,-1.8120654965624212
1774159864620504000,16.123504150390627,0.09223112445175648,0.2540057407289743,-1.8481312278084456
1774159864640495400,16.143495361328124,0.3271224148660898,-0.08608312321603298,-1.3017664886891842
1774159864660485400,16.1634853515625,0.1111392385393381,-0.639728813123703,-1.2019460781522096
1774159864680475100,16.18347509765625,0.255626181537658,-0.3033686143130064,-1.1334004382576792
1774159864700466200,16.203466064453124,0.5601942347683012,-0.546711506730318,-0.9364981753021479
1774159864720456200,16.223456298828125,0.8533331314899026,-0.5102846870869397,-0.1848554129395634
1774159864740446200,16.2434462890625,1.0886854635447263,-0.3525415182828903,0.18482443327941
1774159864760436200,16.263436279296876,1.2346215824380515,-0.32040625835359093,0.3589632949586957
1774159864780427300,16.28342724609375,1.0887152741611004,-0.30637247230410575,0.5040139362543821
1774159864800417300,16.303417236328126,0.7158683422133326,-0.5512497346818447,0.9308940716847777
1774159864820407000,16.323406982421876,0.666885115596652,-0.5187912341475487,0.9761458566881716
1774159864840397000,16.34339697265625,0.7552227397412061,-0.33845629430711266,1.0637413572285324
1774159864860388400,16.363388427734375,0.998078433163464,-0.22698154020309447,1.0710508034590631
1774159864880378400,16.38337841796875,1.3768198299773036,-0.1651058065265417,1.2982245782986284
1774159864900368100,16.4033681640625,1.761990675316751,-0.27914368911683557,1.6103288722530007
1774159864920359200,16.423359130859374,1.7550988699764012,-0.2496802787452936,1.64891243153885
1774159864940349200,16.44334912109375,1.2201054196991026,-0.22309622320234773,1.6157099807694553
1774159864960339200,16.463339111328125,0.7788345014750957,-0.23103695307374,1.5470157992497087
1774159864980329200,16.4833291015625,0.7889087362438439,-0.2550076112478971,1.5352096261218189
1774159865000320300,16.5033203125,0.0051097442291677,0.5786743327021598,1.4113893313162027
1774159865020310300,16.523310302734377,-1.6513953343957661,2.4105004685282707,0.9574679711598902
1774159865040300000,16.543300048828126,-2.138916254880279,3.0884757179379463,1.0612928680978715
1774159865060290300,16.563290283203123,-1.8931401439666746,1.0707324582248925,1.1660323225975036
1774159865080281300,16.58328125,-1.9136422492474316,-1.5432342348843813,0.9663163904607296
1774159865100271000,16.60327099609375,-1.997305013448745,-1.1199854416936634,0.682988912853226
1774159865120261000,16.62326123046875,-2.8826953711956738,0.9933148720234631,0.2039010723343119
1774159865140251100,16.643251220703124,-3.041570758900046,2.7241666049718853,-0.37698892712332305
1774159865160242400,16.663242431640626,-2.536499422547221,4.411052354943752,-0.9154510033592581
1774159865180232200,16.683232177734375,-1.0757371346443891,3.908067761737108,-0.8126690396029501
1774159865200222200,16.70322216796875,0.2887457763291895,1.696435668605566,-0.04793766308650374
1774159865220213200,16.723213134765626,-0.11305223255380988,0.573280364704132,-0.12786293039307928
1774159865240203300,16.743203369140623,-0.9341985200576484,-0.7893728466242551,-0.5976136456456035
1774159865260193000,16.763193115234376,-0.38984380558654663,-1.712942566770315,-0.7537061246331781
1774159865280183600,16.78318359375,0.6202953599877655,-2.2205068889826536,-0.42457799596786494
1774159865300174600,16.803174560546875,1.1717905938632787,-2.8778754036933183,0.16072932674167678
1774159865320164400,16.823164306640624,0.9180202693253755,-3.446846088504791,0.532052903313376
1774159865340154400,16.843154296875,0.9232540783256292,-3.6366672340929505,0.560558428438194
1774159865360144400,16.863144287109375,1.1391864012479782,-3.4151258391171693,0.7628006276495755
1774159865380135400,16.883135498046876,1.168717031636834,-3.145881028202176,1.0377579709924758
1774159865400125400,16.90312548828125,1.0122342381574212,-2.7570044602125883,1.4278835161298513
1774159865420115500,16.923115478515626,0.9101496820807456,-2.1792583482712504,1.6317378632456063
1774159865440106500,16.9431064453125,0.9359721056014298,-1.2550403933495282,1.6187652766868472
1774159865460096300,16.96309619140625,0.7180465630352497,-0.35281332096159457,1.3815566492408513
1774159865480086500,16.98308642578125,0.38014965617656704,0.1865384706556797,1.179861014528945
1774159865500076500,17.00307666015625,0.31973771144226193,0.3883645268142223,1.0767243190508335
1774159865520067300,17.0230673828125,0.8586689395599066,1.4680220497727394,0.9307824280038476
1774159865540057300,17.043057373046874,0.03739712598025799,3.491583640375733,0.6981639048270881
1774159865560047400,17.06304736328125,0.8543138130903244,6.191732825422287,0.5714075565695762
1774159865580037400,17.083037353515625,-0.931633784136176,8.104188495233654,-0.5906587850064039
1774159865600028400,17.1030283203125,-3.647942661345005,8.794929118192195,-2.1588678866714237
1774159865620018400,17.123018310546875,-1.5238140796214341,4.6185172937721015,-1.4851428420521318
1774159865640008400,17.143008544921877,-2.009429604876041,-0.39036008454561233,-2.2763845512881873
1774159865659998500,17.16299853515625,-1.071240334681794,-2.5654648202687502,-4.569873966634273
1774159865679989500,17.182989501953124,-0.7420686591356992,-3.4499469771295783,-4.369691293768584
1774159865699979500,17.2029794921875,-0.08027838246002793,-2.5494810691952705,-2.886205132882297
1774159865719969500,17.222969482421874,0.1935088941901922,-1.934167735403776,-1.0657711825557052
1774159865739960300,17.242960205078123,0.35395788788683713,-1.842360973843932,-0.20071047786576673
1774159865759950300,17.262950439453125,-0.0012022153966128825,-1.127101411178708,-0.13693900270364245
1774159865779940400,17.2829404296875,-0.25567937302961946,-0.45880175260901446,0.6024483723256736
1774159865799930600,17.3029306640625,-0.1095838257908821,-0.45644963652491566,0.6170759595498442
1774159865819921400,17.32292138671875,-0.6044961717009544,-0.5064882174134254,-0.25851635002121326
1774159865839911400,17.342911376953126,-0.48353221617452796,-0.5542974318146705,-0.678824851976335
1774159865859901400,17.3629013671875,-0.32372692720890045,-0.6151596045345068,-0.3343338440822437
1774159865879891500,17.382891357421876,-0.1212520517528057,-0.6273211669713258,-0.05498747200015932
1774159865899882500,17.402882568359374,0.21308818553760647,-0.5972428395718336,-0.1182310234311968
1774159865919872500,17.42287255859375,0.7970454270787537,-0.3289975610882044,-0.3387076387196779
1774159865939862500,17.442862548828124,1.120923014804721,-0.4214800299525261,-0.22827247506277634
1774159865959852500,17.4628525390625,0.8348815289981663,-0.6447200455397367,-0.06564728810451924
1774159865979843300,17.48284326171875,0.32875980680957434,-0.7917857529848814,0.050983387457951904
1774159865999833600,17.50283349609375,0.3381365608334541,-0.8745166431635618,0.24294198346622287
1774159866019823600,17.52282373046875,0.5814022963613271,-0.8158850059747695,0.5587518174076452
1774159866039813600,17.542813720703126,0.6413773109830916,-0.5889081419467925,0.5746046721104532
1774159866059804400,17.562804443359376,0.9400532374352216,-0.708157621705532,0.36469000204242763
1774159866079794400,17.58279443359375,1.1973463292717932,-0.6718728408813476,0.21139815009143204
1774159866099784400,17.602784423828126,1.276747782766819,-0.6637783817529678,0.005795845063496381
1774159866119775500,17.622775390625,1.2866281023986637,-0.6375105525523423,-0.18748577970946206
1774159866139765500,17.642765625,1.1525884652651845,-0.5209685781866312,-0.46169634153936057
1774159866159755500,17.662755615234374,0.9980508145041763,-0.3436410034686327,-0.6785564102984964
1774159866179745500,17.68274560546875,1.0809119069337845,0.010571662896871566,-0.5956474966717884
1774159866199736300,17.702736328125,1.548039004817605,-0.03644318625628948,0.08393408282282762
1774159866219726600,17.7227265625,1.7622610166907309,-0.23796762911975383,0.7692398669168352
1774159866239716600,17.742716552734375,0.5374871667891741,-0.043570261657238006,0.9781360806573182
1774159866259706600,17.76270654296875,-2.0087205798238514,2.0326035597145555,0.6881902808886021
1774159866279697200,17.782697265625,-1.5509690669201313,3.0801614785790443,1.337198159815371
1774159866299687200,17.802687255859375,-1.4236106611162422,1.7788041552126406,1.5756617557585237
1774159866319677200,17.82267724609375,-1.871894088450819,-0.6692419078558683,1.1431754708841442
1774159866339667200,17.842667236328126,-1.808945903237164,-0.8213795117378234,0.9366500048629939
1774159866359658000,17.862657958984375,-2.8285142836749553,0.4925824416577816,0.6718401807207613
1774159866379648300,17.882648193359376,-3.1583757681161164,2.8227584966272112,0.2536526164423674
1774159866399638300,17.90263818359375,-1.3018015600025654,4.708482811379432,-0.2995550108416006
1774159866419628000,17.9226279296875,1.110149545725435,4.208879092782736,-0.7766324613861739
1774159866439619000,17.942619140625,-0.08707987916842103,1.313605395042896,-0.27214192059598863
1774159866459609000,17.962609130859374,-0.9542916061460971,-0.30048984400629997,-0.40236346074603496
1774159866479599000,17.98259912109375,-0.5534789550386369,-0.9448165063142776,-0.9315268166303634
1774159866499590100,18.002590087890624,-0.27825638488829135,-2.0218705687761305,-0.8818721204929053
1774159866519580200,18.022580078125,0.03329261327087879,-2.638902981445193,-0.4569974066007882
1774159866539570200,18.042570068359375,0.47093175086379047,-3.1137960371553897,0.05510779217788949
1774159866559560000,18.062559814453124,0.9065573566772043,-3.499864561986923,0.44438236477542664
1774159866579551000,18.082551025390625,1.0564980350367725,-3.6228251712232824,0.8134484995428473
1774159866599541200,18.102541259765626,0.9904432621099054,-3.4331261907100674,1.1328532527036965
1774159866619531300,18.12253125,0.9890402634441852,-3.0536247693091627,1.2407061630487441
1774159866639521000,18.14252099609375,0.9332926572591066,-2.4175796131342646,1.3455484934009612
1774159866659512000,18.162511962890626,0.7181235737942159,-1.6504115840554237,1.4053326616257429
1774159866679502000,18.182502197265624,0.5838929441332816,-0.9382306981831788,1.4464290805153548
1774159866699492000,18.2024921875,0.169057174500823,-0.28747546413242814,1.4444808690570294
1774159866719482000,18.222482177734374,-0.2716001418694854,0.4772106850028038,1.2458924796454607
1774159866739473200,18.24247314453125,-0.1771959111623466,1.507131824889779,1.0304511551104485
1774159866759463200,18.262463134765625,0.8429613750793039,3.1417858678430317,0.9292571181327104
1774159866779453000,18.282452880859374,0.9219096779793501,4.857081135219335,0.4970664552040398
1774159866799443000,18.30244287109375,0.7873153295725583,6.247335470178723,-0.6230206932984292
1774159866819434200,18.322434326171877,0.15374796168804167,6.338513286185264,-1.2675814566232264
1774159866839424300,18.34242431640625,-0.5744893021024763,5.486742727836966,-1.008466190860793
1774159866859414000,18.3624140625,-1.2078824824638663,3.2720512471348044,-0.43154776191525157
1774159866879405000,18.382405029296876,-2.4625135643601417,0.11236088928878307,-1.0544685750357805
1774159866899395000,18.40239501953125,-1.7665327026605604,-2.380681668847799,-2.0660729908570645
1774159866919385000,18.422385009765627,-0.4996265149503946,-3.3534903439372776,-2.6474621354758736
1774159866939375000,18.442375,0.5783807565830648,-2.898054852890968,-2.291378560671955
1774159866959366100,18.4623662109375,0.6068856971859932,-1.0028531002193688,-0.8577753517210484
1774159866979356200,18.482356201171875,0.770837803632766,-0.42276539358794685,-0.3282931026132777
1774159866999346000,18.502345947265624,-0.4730833759397268,0.03691138828992843,-0.15256043240390718
1774159867019336000,18.5223359375,-1.0051248445436358,-0.30495676028728486,-0.41414712978117163
1774159867039327200,18.5423271484375,-0.7066861609134822,-0.7755828062027692,-0.7237555883318185
1774159867059317000,18.56231689453125,-0.38260347906947134,-0.9284680135816336,-0.6909256972018629
1774159867079307000,18.58230712890625,0.0944463162831962,-1.0156687426507471,-0.5169865958783775
1774159867099297000,18.602297119140626,0.03884016439542174,-0.9796884977310896,-0.4951237236384302
1774159867119288300,18.622288330078124,0.03594225099682808,-0.8048170839935541,-0.6400063148908317
1774159867139278000,18.642278076171873,0.2768881652750075,-0.7165443417787551,-0.5218520099576562
1774159867159268000,18.66226806640625,0.47987157477512954,-0.7255740359306335,-0.48035508397575466
1774159867179258000,18.682258056640624,0.47757031209543344,-0.8960153582662344,-0.47778746197745203
1774159867199249200,18.702249267578125,0.39056364429369567,-1.0247978055238722,-0.41611850291937585
1774159867219239000,18.722239013671874,0.5982860650144517,-0.7484335179924965,-0.4367212555630132
1774159867239229200,18.742229248046876,0.9856835003621875,-0.6182131468862295,0.03617848917180672
1774159867259219200,18.76221923828125,1.2653899379283189,-0.4783160158962011,0.2673721489109099
1774159867279210200,18.782210205078126,1.4916864184767007,-0.2686088510990143,0.2857891915459186
1774159867299200300,18.8022001953125,1.5980781702280045,-0.36939679149389265,0.668459233045578
1774159867319190300,18.822190185546877,1.2294909415513275,-0.6295154621452093,0.7211663755562157
1774159867339181300,18.842181396484374,0.9264167801402509,-0.7594599389195442,0.49192061674818394
1774159867359171000,18.862171142578124,0.8480718499608337,-0.8877309295237064,0.40991562969125805
1774159867379161000,18.8821611328125,0.45033027686178684,-0.7858399963229894,0.0752723771665478
1774159867399151400,18.9021513671875,0.4360222039155662,-0.18372925845384597,-0.04482530778620857
1774159867419142100,18.92214208984375,0.9092406044118105,-0.12577215952575205,0.4985612238064408
1774159867439132200,18.942132080078125,0.8626328747548162,-0.5370487753719091,0.8361621433932334
1774159867459122200,18.9621220703125,-0.5680985781520604,-0.9176374074876308,0.782422296833992
1774159867479112200,18.9821123046875,-2.456857730555534,1.6683698500722646,1.069811105596274
1774159867499103200,19.002103271484376,-2.490840664178133,3.381781787919998,2.1435098662808536
1774159867519093200,19.02209326171875,-2.2900638248115777,3.538194584903121,2.1999081914596257
1774159867539083300,19.042083251953127,-2.017106715375185,2.9996973642885685,1.486566591244936
1774159867559073300,19.0620732421875,-2.8877275201439856,3.1676684971183535,1.0760308568939565
1774159867579064000,19.08206396484375,-2.144376419982314,3.651116615206003,-0.22600531558208167
1774159867599054300,19.102054443359375,0.19537468806207178,4.151078061199188,-1.0124854364395142
1774159867619044400,19.12204443359375,1.7700030091196297,2.7348621865093707,-0.5843777319755404
1774159867639034400,19.142034423828125,-0.8266798831682651,-0.9765765031903981,0.014540895321406424
1774159867659025200,19.162025146484375,-1.7511089235574007,-2.8716572598308323,-1.0400720931537448
1774159867679015200,19.18201513671875,-0.5799888493668288,-3.2257787407815455,-1.5629489891797304
1774159867699005200,19.202005126953125,0.11786767001152038,-3.676357439446449,-1.2113641870997844
1774159867718995500,19.221995361328126,0.05090089680626988,-3.7779531890928744,-0.7341095898900181
1774159867738986200,19.241986328125,0.4207074381448328,-3.900637319475412,-0.23008016380555926
1774159867758976300,19.261976318359373,0.6251740719400346,-3.9585821434438224,0.3352019686862826
1774159867778966300,19.28196630859375,0.4849683133922517,-3.5059453432053327,0.6626842298407107
1774159867798957000,19.30195703125,0.19277166595682502,-2.7155373083144423,0.972396441026777
1774159867818947300,19.321947265625,0.3879214592218399,-1.4651613996446131,1.3063188912965356
1774159867838937300,19.341937255859374,0.43393736046552656,-0.38974458299577236,1.5441409744657575
1774159867858927400,19.36192724609375,0.5350592089898883,0.5773375311404466,1.8033317166171967
1774159867878918100,19.381918212890625,0.7290716687880456,1.14201782528162,2.0559661689929665
1774159867898908200,19.401908203125,0.6027788463890552,1.100963345837593,1.8657104313798247
1774159867918898200,19.421898193359375,-0.1565646265439689,1.2603005058348178,1.3873783411316574
1774159867938888200,19.44188818359375,-0.18277824133932588,1.9894366181612013,0.7710109682425856
1774159867958879200,19.461879150390626,0.47433439891412854,3.6234582084298133,0.4045159626048058
1774159867978869200,19.481869140625,0.9827098913788795,4.550404711532592,0.4082235118858516
1774159867998859300,19.501859375,1.7403671647906302,3.8494197579354044,0.13598368387334048
1774159868018849000,19.52184912109375,-1.121661265951395,4.451832693621516,-0.7680350211717188
1774159868038840300,19.54184033203125,-1.724222085675597,5.193783863857388,-1.578899130244553
1774159868058830300,19.561830322265624,-1.4014964444637297,2.9524229874163863,-0.5191824984874576
1774159868078820400,19.5818203125,-1.479524271517992,-0.20084932008087633,-0.6352533482100814
1774159868098810000,19.60181005859375,-1.2394430112451313,-3.304247881862521,-1.7762062476739287
1774159868118801200,19.62180126953125,-0.7007248413562774,-5.266240612781048,-2.4560779783546924
1774159868138791400,19.64179150390625,0.2274665472410619,-5.230296023696661,-2.620807060523331
1774159868158781200,19.66178125,0.7198984745122492,-3.892428294056654,-2.654063725697994
1774159868178771200,19.681771240234376,0.4770991874523461,-1.7143980262756346,-2.375530569694936
1774159868198762200,19.70176220703125,0.115557639503479,0.19560849681794643,-1.3182723639406264
1774159868218752300,19.721752197265626,0.2762092431001365,1.8752941061526536,-0.1404351285905577
1774159868238742000,19.741741943359376,-0.5059340906620026,2.660498142659664,0.6784874367155135
1774159868258732300,19.761732177734373,-0.8452823653727769,2.0299182661533353,0.4371416363995522
1774159868278723300,19.781723388671875,-0.7622463547676801,1.5721218911945818,-0.19974934121603144
1774159868298712800,19.801712890625,0.21517668224945663,0.2966103722244501,-0.7953685068424791
1774159868318702600,19.82170263671875,0.26085531436279413,-0.5662374604552984,-0.5513596247971058
1774159868338692600,19.841692626953126,0.22408757232725618,-0.9394768988519906,0.015607717410387703
1774159868358684000,19.861683837890624,0.5129685193434357,-1.2913310193926095,0.6040584744034335
1774159868378673700,19.881673583984377,1.1284675119001417,-1.4898060115575789,0.5917852682856842
1774159868398663700,19.90166357421875,1.5195939777083693,-1.6775509353935718,0.23471611651051788
1774159868418653700,19.92165380859375,1.2738000388771296,-2.031735544708371,-0.05468347495174966
1774159868438644700,19.941644775390625,0.7976613670200109,-2.1776310393303633,-0.01100976205319166
1774159868458634500,19.961634521484374,0.6062568977631628,-2.1450451130241155,0.04300193285052664
1774159868478624800,19.981624755859375,0.759286920440197,-1.9525369203090666,0.08237642331835814
1774159868498615800,20.00161572265625,0.8715268136978149,-1.7964771745473145,0.2304847990836948
1774159868518605800,20.021605712890626,0.8645683728620409,-1.5844482888042926,0.33149873025417326
1774159868538595600,20.041595703125,0.4013403282433748,-0.9773755446135998,0.09102202265663072
1774159868558585600,20.061585693359376,0.1749134993135929,0.07124386600255966,-0.35245807778313754
1774159868578577000,20.081576904296874,0.8368127893216908,0.40445407634973524,-0.4264428399916738
1774159868598566700,20.101566650390627,0.30485695317462086,-0.29513211636543274,0.432488842157647
1774159868618556700,20.121556640625,-1.493584361052513,0.7172182955175638,0.607767338858731
1774159868638546700,20.141546630859374,-2.860342669612169,2.2699890050321816,1.4210508936308324
1774159868658537700,20.161537841796875,-3.5897289573073383,3.5009640476614234,2.6198908224612474
1774159868678527700,20.18152783203125,-3.0361744528144596,3.8157477899581194,2.683969619140029
1774159868698517800,20.201517822265625,-0.2308013907521963,2.162879460400343,0.017086268955282865
1774159868718507800,20.2215078125,0.6409146619074046,2.654185306251049,-1.0755538870319723
1774159868738498600,20.24149853515625,1.9293658880800009,2.688521291095018,-0.8692956936448812
1774159868758488600,20.261488525390625,1.0919168466813862,1.7020318811774253,0.8834338899169116
1774159868778478600,20.281478515625,-1.8214475112833082,1.0189034867882727,0.521265186513029
1774159868798468900,20.30146875,-2.6725632589846846,0.7396142517209052,-0.44057267029415814
1774159868818459600,20.321459716796873,-0.6231593711167573,-0.37055531387925145,-0.22543398196753114
1774159868838449700,20.34144970703125,0.5748148807950317,-1.3947797034293412,0.20091087754238396
1774159868858439700,20.361439697265624,1.2425351320415734,-2.5089637653678656,0.4910146443517878
1774159868878429700,20.3814296875,1.4883195723921059,-3.464704985800385,0.7026927804283797
1774159868898420700,20.401420654296874,1.4102496597617864,-4.187061228728294,0.7917927672475575
1774159868918410800,20.42141064453125,1.1427122372865677,-4.4486119780093425,0.9380424821346998
1774159868938400800,20.44140087890625,0.8022938491262495,-4.50266505523622,0.8933641131050885
1774159868958390800,20.461390869140626,0.7633131072163581,-4.310474842429161,0.8144429174076765
1774159868978381600,20.481381591796875,1.0473295169360934,-3.51840851893723,0.7982222888384014
1774159868998371600,20.50137158203125,0.7769926730006933,-2.2608038280576466,0.7027604388371109
1774159869018361900,20.52136181640625,0.43545550994351506,-0.7715700634300708,0.5907222056314348
1774159869038352000,20.541351806640623,0.17343348988890647,0.9854366859942674,0.6659049454528838
1774159869058342700,20.5613427734375,0.584713028344512,2.9111820454895496,1.0938359781756997
1774159869078332700,20.581332763671874,1.9579191978693007,4.705254496982693,1.3318242116920649
1774159869098322700,20.60132275390625,1.406757141470909,6.749709238010644,0.5376166018551215
1774159869118313000,20.62131298828125,-0.24041093061864374,8.044463217589259,-0.8471257282171398
1774159869138303700,20.6413037109375,-1.8676380384415388,8.887195313957333,-1.4744658190846442
1774159869158293800,20.661293701171875,-1.282849606773257,6.242788474398851,-0.7160222176007927
1774159869178283800,20.68128369140625,-2.1916519658982754,1.1161328579187393,-0.2815148021623492
1774159869198274600,20.701274658203126,-2.16172853679955,-2.8823166010111567,-2.417369185253978
1774159869218264800,20.721264892578127,-0.4669001572601497,-4.640919679716229,-4.456586610150337
1774159869238254800,20.7412548828125,-0.017422843965888023,-3.331993966922164,-4.652919914111495
1774159869258244900,20.761244873046873,-0.28831184189133346,-1.386348559692502,-2.8041005579084155
1774159869278235600,20.781235595703127,-0.2683401171602309,-0.7732008795022964,-0.2374101231011562
1774159869298225400,20.801225341796876,-0.14540230427756903,-0.3347802361428737,0.49198560827579346
1774159869318215700,20.821215576171873,-0.26320363105461,0.43834640907943245,0.7579011651702224
1774159869338205700,20.841205810546874,-0.24068156425356863,0.3321598245114088,0.5458545245748013
1774159869358196500,20.861196533203124,-0.27529687749557197,-0.19325404264628887,0.024387031839147675
1774159869378186500,20.8811865234375,-0.3009310849677771,-0.8408113574385643,0.012406997698405756
1774159869398176500,20.901176513671874,0.1442009656637907,-1.4286357958018778,0.5338787305010483
1774159869418166300,20.921166259765624,0.5040080910354853,-1.5992062974750996,0.9743115539330989
1774159869438157600,20.941157470703125,1.0906560329653323,-1.5111615187972782,0.6055316522285342
1774159869458147600,20.961147705078126,1.6060323441028594,-1.3681342730879782,0.4780999254601076
1774159869478137600,20.9811376953125,1.4439070146918296,-1.5811895792692898,0.43453686072863634
1774159869498127400,21.00112744140625,1.3169167115479707,-1.8110966515302658,0.16654723750650882
1774159869518118700,21.02111865234375,0.8659304549954832,-1.7040607566565273,-0.13843877627472392
1774159869538108700,21.041108642578124,1.360946991932392,-1.6557739878714084,0.017415729238511993
1774159869558098400,21.061098388671876,1.6239635759823023,-1.4445488197267056,0.2984766958192922
1774159869578088400,21.08108837890625,1.231683483159542,-1.1712018341898918,-0.005910712747974321
1774159869598079500,21.10107958984375,1.0039473251968623,-0.81275079960227,-0.6553497222341597
1774159869618069500,21.121069580078125,0.8758417542874812,-0.353012058404088,-1.0446452462881803
1774159869638059500,21.1410595703125,0.44485988262668247,0.23030805427730083,-1.3927118111141026
1774159869658049500,21.161049560546875,1.1533419139809906,0.9259949014663695,-1.2200677180372177
1774159869678040600,21.18104052734375,2.114108122968674,2.128428909265995,-0.2903829673432745
1774159869698030600,21.201030517578126,1.4049135594308375,2.0381728842794895,1.5175024122565983
1774159869718020400,21.221020263671875,-0.30528701515495776,2.1322440836399794,2.820933327026665
1774159869738010400,21.24101025390625,-1.9422855754077433,1.5874275968760252,3.0911960828125475
1774159869758001700,21.261001708984374,-2.7555957624584435,1.4690285964667795,1.8516953500308095
1774159869777991400,21.280991455078127,-3.9471103168368336,2.2071102317929268,0.8172081443373114
1774159869797981400,21.3009814453125,-2.9468887341648338,2.5051550207346676,0.8060917801044881
1774159869817972500,21.320972412109374,-2.4436956127740443,2.539927058908343,-0.14214637122154236
1774159869837962800,21.340962646484375,-3.0564059244602917,1.9767758740305899,-0.8928144433330744
1774159869857952500,21.360952392578124,-2.767909885108471,1.567065776848793,-1.1156796342585236
1774159869877942500,21.380942626953125,0.7067730354793369,1.3327683606743812,-1.4328101588770745
1774159869897933600,21.40093359375,0.18104454941451548,0.9641291095495224,-1.2505487810187041
1774159869917923300,21.42092333984375,-1.0589425055794417,-0.9377730175435542,-0.36062940154001116
1774159869937913300,21.440913330078125,-1.2082440823178737,-1.974158969530463,-0.3890373115092516
1774159869957903600,21.460903564453126,-0.8923257830332965,-1.9178496378093957,-0.6064214772077277
1774159869977894700,21.480894775390624,-0.9352500018719583,-1.9653496401309967,-0.2670313726492226
1774159869997884400,21.500884521484377,-0.881614492470026,-2.155304056710005,-0.057777906436286865
1774159870017874400,21.52087451171875,-0.729429103923589,-2.2626474100977183,0.139570529384166
1774159870037864400,21.540864501953124,-0.27446561430320143,-2.2120582095891237,0.04604742889311164
1774159870057855500,21.56085546875,-0.2422719021849334,-1.9614836123526096,0.05405424627065658
1774159870077845500,21.580845458984374,-0.3560544948399067,-2.015705616405606,0.2609611128248274
1774159870097835500,21.60083544921875,0.16290800422132015,-1.974586255031824,0.469743198666349
1774159870117825500,21.620825439453125,0.0022932255037128924,-1.542934375154972,0.7150808450974524
1774159870137816300,21.64081640625,0.14117241162285207,-0.9076111035138368,0.8513442957602441
1774159870157806300,21.660806396484375,0.14532222477868198,-0.17012860312461853,1.011342038558051
1774159870177796600,21.680796630859376,0.36329789009690283,0.15379121630787848,0.9889449863761662
1774159870197786600,21.70078662109375,0.5925128884404898,0.09035305562019348,0.9280196122270077
1774159870217777400,21.72077734375,0.6581525046952068,-0.08218202412426472,0.7291955143634229
1774159870237767400,21.740767333984376,0.5147657780237496,-0.6237877321481704,0.41521833920925855
1774159870257757400,21.76075732421875,0.47236733662486075,-1.0281500385612248,0.25404095817282796
1774159870277747500,21.78074755859375,0.6699358814693988,-0.8398042262226343,0.2842733070902526
1774159870297739500,21.800739501953124,0.8468712419994175,-0.5242430698126554,0.2998814845832996
1774159870317729500,21.8207294921875,1.0216497167564929,-0.28823358902335167,0.020321889875642953
1774159870337719600,21.840719482421875,0.6040561728484928,0.03199205206632614,-0.11267268605115822
1774159870357709300,21.860709228515624,0.4616670789122581,0.8821709573090076,-0.6959901409845799
1774159870377700400,21.880700439453125,-2.785447879886627,1.454389245739579,-1.356122348254919
1774159870397690400,21.9006904296875,-2.053165140097588,3.155674107941985,-2.1710161512352526
1774159870417680400,21.920680419921876,0.6108141226761042,5.697869111782312,-2.4061733991093934
1774159870437670400,21.94067041015625,-0.017462591454386712,5.095301277795434,-1.3386458744056522
1774159870457661400,21.960661376953126,-1.1670493906855584,4.0198739397525785,0.2915404120163992
1774159870477651500,21.9806513671875,-0.14644187645837664,2.5759230859190225,0.8375166267421096
1774159870497641200,22.00064111328125,0.7107599131584167,1.0163152238607407,0.5827025653049349
1774159870517632500,22.020632568359375,1.4177859004855156,-0.5950999823242425,0.21464779953714458
1774159870537622500,22.04062255859375,1.7188218340672552,-1.8908049790173769,0.28205570410601793
1774159870557612500,22.060612548828125,1.448642372650653,-2.879818938976526,0.22091979247871785
1774159870577602300,22.080602294921874,0.7914398621566593,-3.247131909933686,-0.19918980763712896
1774159870597593300,22.10059326171875,0.6345072790831328,-3.857172271758318,-0.42652690154593437
1774159870617583400,22.120583251953125,0.8308283080846071,-3.9448546468645334,-0.45881322385109957
1774159870637573400,22.140573486328126,1.1291824552364647,-3.4619559793531893,-0.5616686181697994
1774159870657563400,22.1605634765625,1.783285100018978,-2.656426363176107,-0.7754196515303104
1774159870677554400,22.180554443359377,2.061163883766532,-1.7884838377058505,-0.9824711141869426
1774159870697544400,22.20054443359375,2.036426332873106,-1.183133679524064,-0.8876797838583588
1774159870717534200,22.2205341796875,2.3615884074516593,-0.5524556033402681,-0.5487022421561181
1774159870737524200,22.240524169921876,2.4103777189314366,-0.16046002654731273,-0.2861502616769634
1774159870757515500,22.260515625,1.9262515554517508,0.058870706641674035,-0.35150494177676733
1774159870777505300,22.28050537109375,0.5860889928728342,-0.027175007173418995,-0.7116744707200676
1774159870797495300,22.300495361328124,0.338917335947603,1.084334867119789,-1.1208904277093708
1774159870817485300,22.3204853515625,2.2125400017566976,2.548616561320424,-0.9359138726081698
1774159870837476600,22.3404765625,3.4647044012784955,2.6759149075001476,0.17821624891972168
1774159870857466400,22.36046630859375,0.5320342351455241,3.8061628000110383,1.2678725485242903
1774159870877456400,22.380456298828125,-0.8291915737282485,4.831898763167858,1.9833432697221636
1774159870897446400,22.4004462890625,-1.6127245352178812,4.087828116559982,1.845466977035254
1774159870917437400,22.4204375,-2.592982357269525,4.599753556591272,0.885982332290709
1774159870937427200,22.44042724609375,-3.0180893455475566,3.462221352291107,0.5157842343512922
1774159870957417500,22.46041748046875,-3.1035780100017782,0.33074528153836724,1.012715153542161
1774159870977407500,22.480407470703124,-1.7941116144597529,-1.8872078313082457,1.0421866741549224
1774159870997398300,22.500398193359374,-1.9103075518667696,-2.28250537225604,1.35672645162791
1774159871017388300,22.52038818359375,-1.2731430362731218,-0.26366847208738325,1.8064460492454468
1774159871037378300,22.54037841796875,1.5431933183521032,2.2409785991251465,1.0868934655614197
1774159871057369300,22.560369384765625,-0.22318806620426473,2.21376209089756,0.6494592759560793
1774159871077359400,22.580359375,-2.0863924330472945,-0.5953197625547647,0.4358760003779083
1774159871097349400,22.600349365234376,-2.247524075245857,-1.643652172923088,-0.14072240283302961
1774159871117339400,22.62033935546875,-1.3964732094742356,-2.316383676460385,-0.5363508197030052
1774159871137330200,22.640330078125,-1.1437536360982805,-3.2237907818347216,-0.2621321658981964
1774159871157320400,22.660320556640624,-0.3576658755593002,-3.862712954750657,0.3947388476191088
1774159871177310500,22.680310546875,-0.3566587443433702,-3.9250925462961193,0.46250148390978574
1774159871197300500,22.700300537109374,-0.5681165522001683,-3.745796886375546,0.16085629585590214
1774159871217291300,22.720291259765624,0.03932765565142035,-3.128556383913755,0.08377627104576676
1774159871237281300,22.74028125,0.374206968254596,-2.533979548680782,0.3214713668344542
1774159871257271300,22.760271240234374,0.39404023436307906,-1.8537632423460482,0.459741846470721
1774159871277261600,22.780261474609375,0.2620046305283904,-1.0775754559874533,0.38160475035570557
1774159871297251600,22.80025146484375,0.5846301723666488,-0.27664193542897697,0.23606592368427662
1774159871317241600,22.82024169921875,1.4539058461368084,0.27841654388606546,0.303833236150071
1774159871337231600,22.840231689453127,2.162510042566061,0.7328659465044737,-0.024424539421498775
1774159871357221600,22.8602216796875,2.225126511607319,1.5043407328665255,-0.7296550216339528
1774159871377212400,22.88021240234375,1.6470992446370423,1.913154757991433,-1.1143307769328354
1774159871397202700,22.90020263671875,1.47395143982172,1.8448884464949369,-1.1896836856894195
1774159871417192700,22.920192626953124,1.8600855772353708,2.2367209416806695,-1.1904257362283766
1774159871437182700,22.9401826171875,2.3758529335170984,2.7019652945578096,-1.1761549996178597
1774159871457173500,22.960173583984375,2.831161583313346,3.596270926296711,-1.0601942592062055
1774159871477163500,22.98016357421875,0.4732416352413594,4.726688330155611,-0.45279268491994584
1774159871497153500,23.000153564453125,-1.9300135383337735,5.171296137717366,-0.22446910072444007
1774159871517144600,23.02014453125,-3.3577877488702534,5.782666286841034,0.05469194138599559
1774159871537134600,23.040134521484376,-2.9882401507288217,4.737341241595149,0.17790709163900464
1774159871557124600,23.06012451171875,-1.8413368914932011,1.790954027211666,-0.29139636390320955
1774159871577114600,23.080114501953126,-1.682593605735898,-0.9895248320907354,-0.8010945563390851
1774159871597105700,23.100105712890624,-1.0382528418373316,-2.6531343358933923,-1.4954592150136827
1774159871617095700,23.120095703125,-0.7870341745436191,-3.0673750622421503,-1.679021154076606
1774159871637085700,23.140085693359374,-0.7408083568762988,-3.2788696949779985,-1.1272856817044317
1774159871657075700,23.16007568359375,-0.7186877104829996,-2.86233705829978,0.02053450971301645
1774159871677066500,23.18006640625,-0.2345703148316592,-2.8193840517580506,0.7611710536863654
1774159871697056500,23.200056396484374,-0.42390353077240284,-2.3042010712355374,0.46676750732380895
1774159871717046800,23.220046875,-0.7451935131579637,-2.0594921511620283,0.08246511538196355
1774159871737036800,23.240036865234377,-0.4945136289160698,-1.9629285504639147,0.019518939462304114
1774159871757027600,23.260027587890626,0.0657441726077348,-1.6019377682656049,-0.23404645535433663
1774159871777017600,23.280017578125,0.6536158841788768,-1.041387705796957,-0.1885243289769627
1774159871797007600,23.300007568359376,1.0701438446819782,-0.5394944149583578,-0.20917634585611522
1774159871816998700,23.31999853515625,1.5106681823223829,-0.29276012653708455,-0.35583873319737613
1774159871836988700,23.33998876953125,1.6050228747993707,-0.5861871925503015,-0.4258339143130928
1774159871856978700,23.359978759765625,1.557011415824294,-1.1245359446048735,-0.5300957413636148
1774159871876968700,23.37996875,1.7227064204156397,-1.277172730180621,-0.6557721854299307
1774159871896959500,23.39995947265625,1.5857096870422362,-1.1259463959246874,-0.4400931066162884
1774159871916949800,23.41994970703125,1.4286692596800625,-0.8924772472679614,-0.11631407476081512
1774159871936939800,23.439939697265626,1.4454647655278443,-0.4923305127233267,0.01870658189980313
1774159871956929800,23.4599296875,1.1910692948289214,-0.010772738426923752,-0.14497321954476647
1774159871976920600,23.479920654296876,1.485011909148842,0.5388941109776496,-0.15432238230882211
1774159871996910600,23.49991064453125,2.391314706543088,1.3152034778892994,0.11034237994006835
1774159872016900600,23.519900634765627,1.8749901547700165,2.1515163548648357,0.19864335273550823
1774159872036890600,23.539890625,1.0248322923153639,2.8816631055384874,-0.07289039110057055
1774159872056881700,23.559881591796874,0.2741163624741137,4.040207702729106,-0.5547323891658336
1774159872076871700,23.57987158203125,0.3855092835135758,5.397909429129958,-0.9746775377012789
1774159872096861700,23.59986181640625,-1.723987107875943,5.314523289912938,-1.1436311056971549
1774159872116852500,23.6198525390625,-1.7930610824935138,4.656669037511945,-0.44418903416041283
1774159872136842800,23.6398427734375,-2.2838544487774373,3.143092858788371,-0.9920261473871766
1774159872156832800,23.659832763671876,-2.69008430262804,1.6877923434227704,-1.5876606749795377
1774159872176822800,23.67982275390625,-2.0269696454808113,0.15020225190520287,-1.2117737908139825
1774159872196813600,23.6998134765625,-1.1479869628190993,-1.2004472178965806,-0.5838478628825396
1774159872216803600,23.719803466796876,-0.755814275893569,-1.9328665896773338,0.41367922000847757
1774159872236793600,23.739793701171877,-1.203543284215778,-1.8723481158286333,1.445961609134078
1774159872256783600,23.75978369140625,-0.2089817731320858,-0.7689315316200256,2.6800787491813303
1774159872276774700,23.779774658203124,0.7946225838460028,0.36889877884387967,3.0193317468240854
1774159872296765400,23.799765380859377,-0.3036719811737537,-0.00035948096215724946,2.616812145668268
1774159872316755200,23.819755126953126,-1.0955004042565821,-0.6119342127472162,1.0837892159357667
1774159872336746500,23.83974658203125,-1.5252530263833701,-1.872109630897641,0.7509555107507854
1774159872356736500,23.859736572265625,-2.252132445824146,-3.023333675941825,-0.16014672281444073
1774159872376726300,23.879726318359374,-2.468368720129132,-3.8836131194382904,-0.551348299685493
1774159872396716300,23.89971630859375,-2.778098101645708,-4.0091199060261244,-0.543059998485446
1774159872416707300,23.919707275390625,-2.4224435659088193,-3.449561777204275,-0.7061144254401326
1774159872436697300,23.939697265625,-2.077565421860665,-2.9451679017215966,-0.6051706368964165
1774159872456687400,23.959687255859375,-1.1864366665922104,-2.1116203978061674,-0.0966032385887578
1774159872476677400,23.979677490234376,0.718738052430749,-0.9321744668841362,0.07205459786355495
1774159872496668400,23.99966845703125,0.3620074118949473,-0.12142507023215293,0.19215557988509535
1774159872516658400,24.019658447265623,-0.3712232762686908,0.5342635285675525,0.43758601916618645
1774159872536648200,24.039648193359376,0.11645780321359633,0.7740303160637617,0.4681115058112889
1774159872556639500,24.059639404296874,0.0071608315400779245,0.6564543224751949,0.15293003290127963
1774159872576629500,24.07962939453125,0.027724896141141653,0.3832324246227741,-0.16870593164404854
1774159872596619300,24.099619384765624,0.15259703808724878,0.15450784014463423,-0.18006560311345382
1774159872616609300,24.119609375,0.49043081658184523,-0.24549159488379954,-0.1936296710256487
1774159872636600300,24.139600341796875,0.6792559368699789,-0.6945856079488992,-0.1827579657362774
1774159872656590300,24.15959033203125,0.9926602075070142,-0.8691571619570255,-0.13656028731805273
1774159872676580400,24.179580322265625,1.2846169087067245,-0.8027864549487829,-0.07993794412505813
1774159872696570400,24.1995703125,1.3278238900095223,-0.5404483546823263,-0.0255608865076676
1774159872716561400,24.2195615234375,1.4073545228421687,-0.4670750754356384,0.07546000412655994
1774159872736551200,24.23955126953125,1.3839599109902978,-0.43753041652143,0.21278816141141577
1774159872756541200,24.259541259765626,1.4059937558829783,-0.5029255564957856,0.4326628835503012
1774159872776532500,24.279532470703124,1.412085643017292,-0.2226414651721716,0.4135910302683711
1774159872796522500,24.2995224609375,1.2133690971814095,0.057172670552134514,0.5399895780641585
1774159872816512300,24.31951220703125,1.1230803389690815,0.25306232239902016,0.544708277149126
1774159872836502300,24.339502197265624,0.6443079576075077,1.2594488574415446,0.23038645327575502
1774159872856493300,24.359493408203125,-0.9565823474317788,2.6672692442297934,-0.4055951726762578
1774159872876483300,24.3794833984375,-1.9542367099642752,4.224636049363017,-1.3979758691221476
1774159872896473300,24.399473388671876,-2.954029253569245,4.35187945048511,-2.444972354711592
1774159872916463400,24.41946337890625,-2.3821692770570517,3.816042388990521,-3.7570927718937397
1774159872936454400,24.439454345703126,-0.948981736234948,3.8051048153907057,-3.612247663107514
1774159872956444200,24.459444091796875,-1.1805712816901504,2.766818582740426,-0.5977187134552747
1774159872976434200,24.47943408203125,-0.9948298796962947,1.4512953713774681,-0.20794952574120834
1774159872996424400,24.499424560546874,-1.0405149415504187,0.022532149803638456,0.295970905277133
1774159873016415200,24.519415283203124,-0.6422745520837605,-1.6623814233124254,0.689206033802405
1774159873036405200,24.5394052734375,-0.23982231707572935,-2.7243472222357985,0.9227075503587723
1774159873056395300,24.559395263671874,0.1563977455444634,-3.36081498773694,0.7874031539864838
1774159873076386600,24.579386474609375,0.3168354871947318,-3.8837417142540214,0.46819629801791157
1774159873096376300,24.599376220703125,0.39103411134965715,-4.177103898337483,0.02526939274780452
1774159873116366300,24.619366455078126,0.6893805135864765,-4.204850567919015,-0.16053035183716566
1774159873136356400,24.6393564453125,0.939172362947464,-3.935625046226382,-0.12969780853688717
1774159873156347400,24.659347412109376,1.0320634856779127,-3.004270663553476,0.012243103240430354
1774159873176337200,24.679337158203126,1.2454624176651239,-2.0459499480217693,0.15866590967215596
1774159873196327400,24.699327392578127,1.4303729948580264,-1.2459434791803359,-0.12766820240542293
1774159873216318500,24.719318359375,1.4837478805623947,-0.40843291685283184,-0.3201446482753381
1774159873236308200,24.73930810546875,1.4587633691705761,0.38937458063960073,0.043949324102699756
1774159873256298200,24.75929833984375,1.4578222889281809,0.9825824656069279,0.38972905663307755
1774159873276288300,24.779288330078124,1.2458233599320054,1.1162965240478515,0.5314792681438848
1774159873296279000,24.799279052734374,0.9459522323459386,0.8609066354840993,0.25935944978184994
1774159873316268800,24.819268798828126,0.5696148279339075,1.061855908808112,-0.26304833089504387
1774159873336258800,24.8392587890625,0.5857077384702861,2.3248428772479293,-0.12327237859927118
1774159873356248800,24.859248779296873,1.8140023098438978,3.464508586445451,0.47328949297107753
1774159873376240000,24.879240234375,2.38891860518679,3.870866450589895,1.5864800868928433
1774159873396230000,24.89922998046875,1.4279117193110287,4.079993185150623,2.439387248055637
1774159873416220000,24.919219970703125,0.14784662868976592,3.648720075458288,2.8502134897857903
1774159873436211000,24.9392109375,-1.1306061313640325,2.318711827147007,1.5326745546862481
1774159873456201000,24.959200927734376,-2.167320073196292,1.1010761585623026,-0.3405398225829005
1774159873476191000,24.97919091796875,-2.513895961073041,-0.1221013620585203,-0.8614021639160812
