time,seconds_elapsed,z,y,x
1774159848548248300,0.051248291015625,-8.910584957373143,-4.090610148493945,-0.19689791557397693
1774159848568238300,0.07123828125,-8.884165152481199,-4.14234647321105,-0.2880207317239605
1774159848588229400,0.0912294921875,-8.849168657901883,-4.207524755564331,-0.3991644089763984
1774159848608219400,0.111219482421875,-8.788425143125652,-4.320676795230805,-0.5154824749257415
1774159848628210400,0.13121044921875,-8.703952962237596,-4.475442701789737,-0.6180581024549902
1774159848648200200,0.1512001953125,-8.614601777136325,-4.636639810439944,-0.6786661542832851
1774159848668191500,0.17119140625,-8.516098148286343,-4.798199614922702,-0.7897663029212504
1774159848688181500,0.191181396484375,-8.415147710806131,-4.9373155324071645,-0.9892385624952613
1774159848708172300,0.21117236328125,-8.329592410856485,-5.028732417866587,-1.224795404146239
1774159848728162300,0.231162353515625,-8.269881161737441,-5.079373640823364,-1.4069130626849828
1774159848748153300,0.2511533203125,-8.2415172370404,-5.112006328880787,-1.4543604580365121
1774159848768143400,0.271143310546875,-8.234339892756939,-5.1405988016366955,-1.3929405053034425
1774159848788134400,0.291134521484375,-8.247522030413151,-5.131909883746505,-1.346205203744024
1774159848808124400,0.31112451171875,-8.278236317628622,-5.055488907366991,-1.4433385671541095
1774159848828115500,0.331115478515625,-8.31581639896035,-4.959731946876645,-1.5551998363576829
1774159848848105500,0.35110546875,-8.357235035541652,-4.865885788443684,-1.6279301415257155
1774159848868096300,0.37109619140625,-8.38762140597701,-4.795169161185622,-1.6806385261453687
1774159848888086300,0.391086181640625,-8.384656126430631,-4.7681850004091855,-1.7698415349476038
1774159848908077300,0.411077392578125,-8.337377073383331,-4.796653262263536,-1.9106664483070372
1774159848928067300,0.4310673828125,-8.272482868668437,-4.854291504500806,-2.0426117435097693
1774159848948058400,0.451058349609375,-8.207533134374023,-4.922483289456367,-2.139145241330564
1774159848968048400,0.47104833984375,-8.15723853289783,-4.9741544399827715,-2.210800610743463
1774159848988039200,0.4910390625,-8.123842459252476,-4.995367908403277,-2.2847033206917344
1774159849008029400,0.511029541015625,-8.108187209481,-4.9831256819456815,-2.3656173707067967
1774159849028020500,0.5310205078125,-8.092592165464163,-4.972458741980791,-2.440285658200085
1774159849048010200,0.55101025390625,-8.071873787084222,-4.979910811552405,-2.493137542943656
1774159849068001300,0.571001220703125,-8.04828482170403,-4.991747964340448,-2.545180741652846
1774159849087991300,0.5909912109375,-8.02575676355362,-5.003555891034007,-2.592690388585627
1774159849107982300,0.610982421875,-8.003212338790297,-5.017696060067415,-2.63471195949614
1774159849127972400,0.630972412109375,-7.980042475605011,-5.033556477022171,-2.67443723616302
1774159849147963400,0.65096337890625,-7.959711635237932,-5.044443197217583,-2.7142162888437507
1774159849167953200,0.670953125,-7.948553696885704,-5.052753929445148,-2.7314015246614813
1774159849187944400,0.6909443359375,-7.949447430855035,-5.059803263434768,-2.715705650618672
1774159849207934500,0.7109345703125,-7.9462763996034855,-5.069820215058327,-2.7062878339320418
1774159849227925200,0.73092529296875,-7.934004947051405,-5.084475932398438,-2.7147838595986364
1774159849247915300,0.750915283203125,-7.9166247731834645,-5.101522928789258,-2.7334792077183723
1774159849267906300,0.77090625,-7.878823742577433,-5.132282224190235,-2.7846353944599627
1774159849287896300,0.790896240234375,-7.80105953489542,-5.19719279551804,-2.8814997316703197
1774159849307887600,0.8108876953125,-7.735285624736547,-5.252251250395179,-2.9579712691932913
1774159849327877600,0.830877685546875,-7.721793105956912,-5.272951508596539,-2.9563971517443655
1774159849347868400,0.850868408203125,-7.723226938152313,-5.294609213653207,-2.913635576121509
1774159849367858400,0.8708583984375,-7.727849337255955,-5.317466942149401,-2.8592434761986136
1774159849387849500,0.890849365234375,-7.725012068003416,-5.338492194521427,-2.8275568368196486
1774159849407839500,0.910839599609375,-7.693654806709289,-5.3693187099397175,-2.854554441599548
1774159849427830500,0.93083056640625,-7.664215361735224,-5.386926847344637,-2.900207354749739
1774159849447820500,0.950820556640625,-7.666751017692684,-5.3709536176651715,-2.923040241065621
1774159849467811600,0.9708115234375,-7.682587469249963,-5.329730211395025,-2.956722438175976
1774159849487801600,0.990801513671875,-7.664158663111925,-5.291212556952238,-3.0715032480880615
1774159849507792400,1.01079248046875,-7.599241662043332,-5.25394577935338,-3.2890672638654705
1774159849527782400,1.030782470703125,-7.507648835495114,-5.190756624990701,-3.586313303644955
1774159849547773400,1.0507734375,-7.423194774785637,-5.105069807615876,-3.873606396947801
1774159849567763500,1.070763427734375,-7.4018018581449985,-4.951155841711163,-4.10728334313631
1774159849587754500,1.09075439453125,-7.454938405048847,-4.713056402905285,-4.287350864212215
1774159849607744500,1.11074462890625,-7.519372006514668,-4.490556684291363,-4.411840582711994
1774159849627735300,1.1307353515625,-7.522808410704135,-4.341593034270406,-4.552835738071799
1774159849647725600,1.1507255859375,-7.520369785380363,-4.191486936216056,-4.695300965984165
1774159849667716600,1.170716552734375,-7.540337637653947,-4.037016213211417,-4.7975201082259415
1774159849687706400,1.190706298828125,-7.58609810283184,-3.8978076490074396,-4.840309740899503
1774159849707697400,1.210697509765625,-7.661284568980336,-3.795469848822057,-4.803073066177964
1774159849727687400,1.2306875,-7.712575195756554,-3.7471912633433937,-4.758689442311227
1774159849747678500,1.250678466796875,-7.73421770324409,-3.711671037150919,-4.751395485910773
1774159849767668500,1.27066845703125,-7.715164043205976,-3.6246956412702795,-4.848526949624717
1774159849787659500,1.290659423828125,-7.6468673365712165,-3.45879400819093,-5.0727264578938485
1774159849807649300,1.310649169921875,-7.559538012686371,-3.1743644876256583,-5.380258037105202
1774159849827639600,1.3306396484375,-7.506266441226005,-2.7028832861855623,-5.702699016156792
1774159849847630600,1.350630615234375,-7.5594339677900075,-2.081787277339399,-5.889949434474111
1774159849867620400,1.370620361328125,-7.712837061563134,-1.4355493745826184,-5.884022967034578
1774159849887611400,1.390611328125,-7.894082686507701,-0.9427500753037631,-5.741521206504106
1774159849907601400,1.410601318359375,-8.062936447390914,-0.7211725130360573,-5.53528259460032
1774159849927592400,1.430592529296875,-8.21801828803122,-0.707444724195823,-5.304157378721237
1774159849947582500,1.45058251953125,-8.369367956405878,-0.7743277646403759,-5.052175252774357
1774159849967573500,1.470573486328125,-8.5513302051872,-0.8019435743838548,-4.73307744667083
1774159849987563300,1.490563232421875,-8.768330449602008,-0.7193680939625948,-4.332351743194461
1774159850007554600,1.510554443359375,-8.971114537137746,-0.6007436142344027,-3.9151749633938073
1774159850027544600,1.530544677734375,-9.108157447740435,-0.524287274280563,-3.5968005031287666
1774159850047535400,1.550535400390625,-9.203588245016336,-0.5239676504047587,-3.3451161910846827
1774159850067525400,1.570525390625,-9.285054229825734,-0.5494755280835554,-3.1074475449115035
1774159850087516700,1.5905166015625,-9.370169969314336,-0.5385888444207608,-2.842572619643807
1774159850107506400,1.61050634765625,-9.452842991825937,-0.47727600532397624,-2.56638807259351
1774159850127497500,1.63049755859375,-9.526104042869806,-0.3877889919485897,-2.296375638306886
1774159850147487500,1.650487548828125,-9.592121698656678,-0.3132277084937319,-2.015805715779215
1774159850167478500,1.670478515625,-9.640846274337171,-0.30843893984723836,-1.7689912017285823
1774159850187468500,1.690468505859375,-9.667938279402255,-0.39639421361070126,-1.5950634985819458
1774159850207459300,1.710459228515625,-9.670044311770797,-0.5399416472692042,-1.5391867130592465
1774159850227449300,1.730449462890625,-9.654084526094794,-0.7051525946706533,-1.5721939335174857
1774159850247440600,1.750440673828125,-9.59950304107964,-0.8916493450764567,-1.795797375589609
1774159850267430700,1.7704306640625,-9.486442479088902,-1.0429123580809683,-2.256131890723854
1774159850287420700,1.790420654296875,-9.332222223713993,-1.1089513489168137,-2.80182706001848
1774159850307411700,1.81041162109375,-9.116688544720411,-1.1019113672774283,-3.44124432297498
1774159850327401700,1.830401611328125,-8.767658249428868,-1.1081847484584897,-4.250938073094189
1774159850347392800,1.850392822265625,-8.25121737779975,-1.2047235800415277,-5.1610500535130495
1774159850367382800,1.8703828125,-7.631661584132909,-1.3713446134366094,-6.003959844535589
1774159850387373600,1.89037353515625,-7.044189612469077,-1.4762503644138574,-6.661115008756518
1774159850407363600,1.910363525390625,-6.704336895367502,-1.4445362525060772,-7.009677102014422
1774159850427355000,1.93035498046875,-6.596976590844989,-1.3334765089437364,-7.1324699534684415
1774159850447345000,1.950344970703125,-6.542172402989864,-1.1588920223888008,-7.212997780644893
1774159850467335700,1.970335693359375,-6.472287550380826,-1.0320192812100053,-7.294847796335816
1774159850487325700,1.99032568359375,-6.423474711894989,-0.921983473867923,-7.352503866490721
1774159850507316700,2.010316650390625,-6.498842379829287,-0.7278474607553332,-7.307918290311098
1774159850527306800,2.030306640625,-6.701444096535444,-0.419370417387411,-7.1473881211370225
1774159850547297800,2.0502978515625,-6.8470087517678735,0.04274369747287128,-7.020472052273154
1774159850567287800,2.070287841796875,-6.966122037926316,0.5900015266740695,-6.877167743188142
1774159850587278600,2.090278564453125,-6.872112213364243,0.9917700537342578,-6.925377355083823
1774159850607268900,2.110268798828125,-6.637421413958072,1.2548814033955336,-7.109169741901755
1774159850627259600,2.130259765625,-6.422319696640968,1.4892020543150604,-7.259922613427043
1774159850647249700,2.150249755859375,-6.2613464598745106,1.6940685010828076,-7.355002113047242
1774159850667240700,2.17024072265625,-6.1489616051882505,1.8732645000211894,-7.40618226518631
1774159850687230700,2.190230712890625,-6.037089960721135,2.102655147192627,-7.436583833190799
1774159850707221800,2.2102216796875,-5.72265926964581,2.490732527628541,-7.564245751985907
1774159850727211800,2.230211669921875,-5.259464250513911,2.9464132256075737,-7.734796379914879
1774159850747201800,2.250201904296875,-4.798865969876945,3.3514597148925063,-7.868225776195525
1774159850767192600,2.270192626953125,-4.577115023803711,3.4956446062043307,-7.937308080250024
1774159850787182800,2.290182861328125,-4.539847953943908,3.627826632772386,-7.899305974113941
1774159850807173600,2.310173583984375,-4.487138984802365,3.757499891389906,-7.868746000677347
1774159850827163600,2.33016357421875,-4.342875475296378,3.9058869105666876,-7.877427319782972
1774159850847154700,2.35015478515625,-4.109319817399978,4.139713202098012,-7.883314039734006
1774159850867144700,2.370144775390625,-3.8250685760110614,4.462946792832017,-7.849925564873218
1774159850887135700,2.3901357421875,-3.5295232026696204,4.817886896689236,-7.778227525362372
1774159850907125800,2.410125732421875,-3.2308503449574113,5.114445538726449,-7.718447302660346
1774159850927116500,2.430116455078125,-2.90159471745491,5.46262067849338,-7.609922046011686
1774159850947106800,2.45010693359375,-2.534300743459165,5.921031970480084,-7.395207282185554
1774159850967097900,2.470097900390625,-2.255094510500133,6.3286553245157,-7.143741289067268
1774159850987087600,2.490087646484375,-2.0945104191817343,6.6376920475929975,-6.908290026682615
1774159851007078700,2.51007861328125,-2.002597274637967,6.896050138312578,-6.678658264231681
1774159851027068700,2.530068603515625,-1.8677765701293945,7.127254264646768,-6.471788368687033
1774159851047059700,2.550059814453125,-1.7903854335434735,7.3323746861755845,-6.261085178589821
1774159851067049700,2.5700498046875,-1.804214198540151,7.495712898507714,-6.060484280312061
1774159851087039700,2.590039794921875,-1.855792994607985,7.61114486580491,-5.898887358689308
1774159851107030500,2.610030517578125,-1.8930485201604663,7.686825252950191,-5.787872623312473
1774159851127020800,2.630020751953125,-1.9208501347996294,7.738493480867147,-5.709329832473397
1774159851147011800,2.65001171875,-1.9537661698430775,7.774861848321557,-5.648426158699393
1774159851167001600,2.670001708984375,-2.057644185207784,7.7967872644037,-5.580913295918703
1774159851186992600,2.68999267578125,-2.1850467224143446,7.826582683208584,-5.4900417693823576
1774159851206982700,2.709982666015625,-2.196003877497464,7.8700670201480385,-5.423098815444112
1774159851226973700,2.7299736328125,-2.0324710193760693,7.947771606597304,-5.373302226617932
1774159851246963700,2.749963623046875,-1.837609103141725,8.09035812280178,-5.228737103816867
1774159851266955000,2.769955078125,-1.7160094069950282,8.26238583754599,-4.99586592105329
1774159851286944800,2.78994482421875,-1.6164153525598346,8.427471770328284,-4.747133152291179
1774159851306934800,2.809934814453125,-1.5129253135994076,8.591544726675748,-4.479596314337849
1774159851326926000,2.829926025390625,-1.4739023399829863,8.699978797909617,-4.278825904712081
1774159851346915800,2.849915771484375,-1.4972924217902124,8.775073494121433,-4.114195314481854
1774159851366907000,2.869906982421875,-1.523783538352698,8.84779152432978,-3.945259720534086
1774159851386897000,2.88989697265625,-1.5929386153824627,8.922778668513894,-3.743922616936266
1774159851406887700,2.9098876953125,-1.73540208972916,8.96538037739992,-3.5750124496906994
1774159851426878000,2.9298779296875,-1.9301529468044638,8.938541470313071,-3.5422266168981786
1774159851446869000,2.949868896484375,-2.2144034575410187,8.829699987322092,-3.6473558013677594
1774159851466858800,2.969858642578125,-2.571104579721391,8.684631591174005,-3.7599160126209257
1774159851486848800,2.989848876953125,-2.860522410093248,8.609380827617645,-3.723756904003024
1774159851506840000,3.009840087890625,-2.9949837797701355,8.730863765516876,-3.3124735661551354
1774159851526830000,3.029830078125,-3.0073414493009447,8.968411123397946,-2.5872528737068174
1774159851546820900,3.04982080078125,-2.875820516990125,9.215074100148676,-1.7269773757331073
1774159851566811000,3.069810791015625,-2.581754276290536,9.40791020964384,-0.998085009034723
1774159851586802000,3.089802001953125,-2.26438241719678,9.52762730691433,-0.5169689871564507
1774159851606792000,3.1097919921875,-2.1427958727926013,9.56345265353322,-0.34524021882619704
1774159851626783000,3.129782958984375,-2.0902952857047317,9.576306289887428,-0.30885343893226236
1774159851646772700,3.149772705078125,-1.95677324270457,9.605665070840717,-0.269502913861908
1774159851666762800,3.1697626953125,-1.764016482055932,9.644906363382935,-0.18553161343438548
1774159851686754000,3.189754150390625,-1.6274638391882181,9.670251232519746,-0.08937895902418531
1774159851706744000,3.209744140625,-1.5470039626814425,9.683534492462872,-0.07956892814957536
1774159851726734800,3.22973486328125,-1.5135245946668088,9.688453244164586,-0.11622486210740171
1774159851746724900,3.249724853515625,-1.3926362616598604,9.706111650452018,-0.14943840965954586
1774159851766716000,3.2697158203125,-1.1687144743535667,9.735622991618513,-0.14883089961991644
1774159851786706000,3.289705810546875,-1.027309642214328,9.751717217329144,-0.13790063254372215
1774159851806697000,3.309697021484375,-0.9718806735243648,9.75653543126583,-0.18929471056126057
1774159851826687000,3.32968701171875,-0.9799006791770458,9.75394249216318,-0.2660275841678493
1774159851846676700,3.3496767578125,-1.0173500468011945,9.749657362189888,-0.28209477574108166
1774159851866668000,3.36966796875,-1.0402390472184866,9.748658414280413,-0.22792486720150335
1774159851886658000,3.389657958984375,-1.0279559042286128,9.75062357687354,-0.19758913097484035
1774159851906648800,3.40964892578125,-0.9622643385909497,9.757288879981637,-0.1994374439889565
1774159851926638800,3.429638916015625,-0.8477514589000493,9.768072724324464,-0.19095603136960415
1774159851946630000,3.4496298828125,-0.7580581092976033,9.775303260099887,-0.19792640010518953
1774159851966620000,3.469619873046875,-0.7002087085276841,9.778251588511466,-0.25672941180551423
1774159851986610000,3.48960986328125,-0.62589610260427,9.780530639359354,-0.34622835308071226
1774159852006601000,3.50960107421875,-0.5574564803674816,9.782616797983646,-0.4000426896482706
1774159852026590700,3.5295908203125,-0.4567293667817488,9.786851659074426,-0.42348293074015525
1774159852046582000,3.54958203125,-0.3681726930590346,9.789694773545861,-0.4435285609576851
1774159852066572000,3.569572021484375,-0.37281021666657177,9.78921195846498,-0.45023810506630685
1774159852086562800,3.589562744140625,-0.38805286704916503,9.789705879461765,-0.42600024732332675
1774159852106552800,3.609552734375,-0.3973323347110301,9.790828161489962,-0.39012605659402905
1774159852126542800,3.62954296875,-0.5677002264842391,9.78447440854907,-0.3348821256147697
1774159852146534000,3.649533935546875,-0.5833568644952029,9.78521850491464,-0.2821253535424359
1774159852166524000,3.66952392578125,-0.595544766949676,9.785554605001211,-0.24216484334757551
1774159852186515000,3.689514892578125,-0.6418277581643312,9.78391560562253,-0.18284171676328403
1774159852206504700,3.709504638671875,-0.6407043070923537,9.785023274603486,-0.11490210733735001
1774159852226496000,3.72949609375,-0.672613941572234,9.783388951399921,-0.057338907664245924
1774159852246486000,3.749486083984375,-0.7208893852457404,9.780024443402885,0.04248689600047655
1774159852266476000,3.76947607421875,-0.7731690961245447,9.774539874511957,0.17599101061830297
1774159852286467000,3.789467041015625,-0.8368550210282206,9.765923437336086,0.3111331108346581
1774159852306457000,3.80945703125,-0.909002996263653,9.755945648679136,0.4069779322715476
1774159852326448000,3.8294482421875,-0.95895119545497,9.748453831619024,0.46736364658605306
1774159852346438100,3.849438232421875,-0.9655047818168997,9.745087570056318,0.5210091293927281
1774159852366429200,3.86942919921875,-0.9343447966605425,9.745156543639302,0.5738598450925201
1774159852386419000,3.8894189453125,-0.9170644299052655,9.741648827779292,0.6554804359417409
1774159852406410200,3.90941015625,-0.9482910505570471,9.726624861648679,0.8147900503449141
1774159852426400300,3.929400146484375,-0.9371616076469421,9.710819974273443,0.9960331180062144
1774159852446390300,3.949390380859375,-0.8724029389452189,9.701212772494554,1.1383297113534063
1774159852466381000,3.969381103515625,-0.8331926991283893,9.69499112150073,1.2179099554814397
1774159852486371000,3.98937109375,-0.8586774881925433,9.682675245285033,1.295706311867386
1774159852506362000,4.009362060546875,-0.90246701862365,9.67358125372529,1.3333316936455666
1774159852526352100,4.02935205078125,-0.9259953398577868,9.671387543073296,1.3331081140227614
1774159852546342100,4.049342041015625,-0.9738456169217824,9.667024087166785,1.3306579443916677
1774159852566333000,4.0693330078125,-1.0226871700454503,9.664410105276108,1.3128845334224402
1774159852586323000,4.089322998046875,-1.090554399221763,9.664937928542495,1.2530259847871958
1774159852606314200,4.109314208984375,-1.2246183670789004,9.662948216030001,1.1393587621401995
1774159852626304300,4.12930419921875,-1.403992206802219,9.649460373425484,1.0426428934898226
1774159852646295000,4.149294921875,-1.5773061619646846,9.625665071818233,1.0144249531347305
1774159852666285000,4.16928515625,-1.7388988458037375,9.597308745905757,1.0189693185660988
1774159852686275300,4.189275390625,-1.856736705198884,9.569000935310125,1.0757028670486062
1774159852706266000,4.20926611328125,-1.9339073309019206,9.55220820594132,1.0889097007546573
1774159852726256000,4.229256103515625,-1.9611679705321787,9.54549438751638,1.0989800630658864
1774159852746247200,4.2492470703125,-1.952706577787548,9.547126957154273,1.0998604260969906
1774159852766237000,4.26923681640625,-1.8188092717342077,9.571723638272285,1.1155393490049987
1774159852786228200,4.289228271484375,-1.4961626871079206,9.626913026052712,1.1200099916130304
1774159852806218200,4.30921826171875,-1.0614512004647403,9.693765963619947,1.0366280901797116
1774159852826208000,4.3292080078125,-0.7143916937895118,9.742800920423864,0.8589915956430136
1774159852846199000,4.349198974609375,-0.5435815746741369,9.767178990355134,0.6907187033876776
1774159852866189300,4.369189208984375,-0.39548951985593883,9.78100644017756,0.5881158590579405
1774159852886180000,4.38918017578125,-0.3371631492240354,9.790337747624516,0.45385724541153755
1774159852906170000,4.409170166015625,-0.30921120286136866,9.796707282656431,0.31512141328584403
1774159852926161200,4.4291611328125,-0.2669812133645639,9.797722012656926,0.3220948324950412
1774159852946151000,4.44915087890625,-0.19498141442816702,9.794428231808542,0.4489364113505929
1774159852966141200,4.46914111328125,-0.13150513195348904,9.783563723444939,0.6595296382673085
1774159852986132200,4.48913232421875,-0.09696988907721825,9.775154791539906,0.779323600166291
1774159853006122200,4.509122314453125,-0.059337305806693615,9.769538120701908,0.8502876993793994
1774159853026113000,4.529113037109375,0.057318020139844154,9.76436802458763,0.907872823189944
1774159853046103300,4.549103271484375,0.15550693418458103,9.762965172052382,0.9114270816054194
1774159853066093300,4.56909326171875,0.03791152350949123,9.776291102093458,0.7701205952741206
1774159853086084000,4.589083984375,-0.2003779762420803,9.785299753457307,0.61492506512627
1774159853106074000,4.60907421875,-0.30256893356898795,9.785252407184243,0.5724326618336141
1774159853126065200,4.629065185546875,-0.37902156546209004,9.785551682391763,0.5193612891204655
1774159853146055200,4.64905517578125,-0.5070315670425072,9.782941792154311,0.45534792236071076
1774159853166046200,4.669046142578125,-0.6444400595545768,9.778407655856013,0.37127833092417567
1774159853186036200,4.6890361328125,-0.7775449000559747,9.772308754459022,0.2603298291839659
1774159853206026000,4.70902587890625,-0.8671445069603622,9.76735376240015,0.13131590212485753
1774159853226017300,4.729017333984375,-0.7900903472438454,9.774192083987593,0.10632750000921078
1774159853246007300,4.74900732421875,-0.6550275045424699,9.782424490281938,0.21326555139850825
1774159853265998000,4.768998046875,-0.5504850339196622,9.788045837295055,0.2479837770257145
1774159853285988000,4.788988037109375,-0.5659130873391405,9.789759070953727,0.10379031881494447
1774159853305979100,4.808979248046875,-0.5553852270513773,9.790580324208737,-0.0804096532900352
1774159853325969200,4.82896923828125,-0.504679341360554,9.791535432976485,-0.2037444204678759
1774159853345959200,4.848959228515625,-0.47642296869121487,9.790457574611901,-0.3006040267041884
1774159853365950200,4.8689501953125,-0.49532370318993924,9.787126968884467,-0.37039921000208703
1774159853385940000,4.88893994140625,-0.5186876276426017,9.784738027921318,-0.4003191319694742
1774159853405931300,4.90893115234375,-0.5076782309155911,9.78503087338805,-0.40720140229649837
1774159853425921300,4.92892138671875,-0.4890997871737927,9.786372935646773,-0.3976012147802859
1774159853445911300,4.948911376953125,-0.4864527067311108,9.788712776771186,-0.33891667836047706
1774159853465902000,4.968902099609375,-0.605275485510379,9.784309573376179,-0.26704434172865
1774159853485892000,4.98889208984375,-0.8402052813041955,9.767624396035075,-0.24073309351140632
1774159853505883100,5.008883056640625,-1.071297837022692,9.744580789577961,-0.2566309746660292
1774159853525873200,5.028873046875,-1.1272249644931405,9.739660868832468,-0.1969399098184891
1774159853545864200,5.0488642578125,-1.0935228205733,9.744361009347438,-0.14846464185710065
1774159853565854000,5.06885400390625,-1.0767855477187782,9.746071320396661,-0.15816568679874762
1774159853585844000,5.088843994140625,-1.1119055956125259,9.741184132876992,-0.20824416130622847
1774159853605835300,5.108835205078125,-1.1503977502878755,9.7364851614058,-0.2187438184128143
1774159853625825300,5.1288251953125,-1.1730963426996022,9.733472535586356,-0.23180435724966228
1774159853645816000,5.148816162109375,-1.1287220711831003,9.737584062558412,-0.2754048861810006
1774159853665806000,5.16880615234375,-1.0386984667129815,9.74388988470435,-0.38481863436829294
1774159853685796000,5.188796142578125,-0.8773539124161005,9.756929399019478,-0.45051597215961664
1774159853705787100,5.208787109375,-0.8746673767458647,9.757983291986584,-0.43256804487369954
1774159853725777200,5.228777099609375,-0.9329258697733283,9.753462015169859,-0.41234636396951974
1774159853745768200,5.248768310546875,-0.9018632075116038,9.755990656864643,-0.4215340982273221
1774159853765758000,5.268758056640625,-0.8651338247250765,9.758708683651685,-0.435335938684456
1774159853785748200,5.288748291015625,-0.7082153432421385,9.774052967777848,-0.36972668103538453
1774159853805739300,5.3087392578125,-0.33784294818174093,9.794238846716285,-0.35936712651923297
1774159853825729000,5.32872900390625,0.03159986299452139,9.796227974706888,-0.4509079671518877
1774159853845720000,5.348719970703125,0.19706359099708495,9.792756499204039,-0.48319359533730893
1774159853865710000,5.3687099609375,0.2509364528188482,9.791357738322018,-0.4865229954883456
1774159853885700400,5.388700439453125,0.24798828880405052,9.790073543730378,-0.5131967020761221
1774159853905691100,5.408691162109375,0.23367597807412965,9.78723452091217,-0.5707953794879839
1774159853925681200,5.42868115234375,0.36251273106858134,9.780290985384584,-0.6203703249201178
1774159853945672000,5.448671875,0.5283781603233888,9.770081726059317,-0.6608563568264245
1774159853965662200,5.468662109375,0.651132396800071,9.76116250654459,-0.6827148451521993
1774159853985652200,5.48865234375,0.6746867292582989,9.761699682161211,-0.6514684238214046
1774159854005643000,5.50864306640625,0.607422142150253,9.770288062286376,-0.5855583565948531
1774159854025633000,5.528633056640625,0.48221430197637527,9.780907071456312,-0.5212583183808251
1774159854045624000,5.5486240234375,0.3443730075376108,9.789105575481056,-0.47456605224553494
1774159854065614300,5.5686142578125,0.16121026039272546,9.79534534665346,-0.44227940114680675
1774159854085604000,5.58860400390625,-0.058011591894575394,9.797298234286904,-0.42423440669458357
1774159854105595100,5.60859521484375,-0.10935250125303864,9.800486216673255,-0.32996015904266385
1774159854125585200,5.628585205078125,-0.10104847276089712,9.802823135188222,-0.25462087695263325
1774159854145576200,5.648576171875,-0.10987837002435698,9.803100198563932,-0.23986498717367646
1774159854165566200,5.668566162109375,-0.20799320048615336,9.801740600648522,-0.23028777867425232
1774159854185557200,5.68855712890625,-0.44029034622143953,9.79521675183773,-0.1739676698308438
1774159854205547000,5.708547119140625,-0.7449131618466228,9.777931270515918,-0.08697439123364165
1774159854225537000,5.728537109375,-1.066068777262792,9.748474289885163,-0.03356308022573357
1774159854245528300,5.7485283203125,-1.261514557799697,9.725154204574228,0.01825493713367614
1774159854265518300,5.768518310546875,-1.4493629420101641,9.69836731993556,0.10677499718153849
1774159854285509400,5.78850927734375,-1.6081728632628918,9.67233096140325,0.17368635040512306
1774159854305499400,5.80849951171875,-1.7135202205277977,9.654897596043348,0.13107673220727592
1774159854325489400,5.828489501953125,-1.8148957515522837,9.63721347079277,0.025308544297970366
1774159854345480400,5.84848046875,-1.7744361692614852,9.643179685720801,-0.17564522938793525
1774159854365470500,5.868470458984375,-1.5862801804065703,9.671292850527166,-0.346679165588133
1774159854385460500,5.88846044921875,-1.1308240118984132,9.731059629225731,-0.4450866040546447
1774159854405451300,5.908451171875,-0.28330510137891396,9.785640529718995,-0.5756357321912422
1774159854425441500,5.928441650390625,0.6604997984737158,9.763243988993763,-0.6428069053947926
1774159854445432300,5.948432373046875,1.1266533020850271,9.72128817679584,-0.6305456819757819
1774159854465422300,5.96842236328125,0.9754639388386159,9.741296945601702,-0.5709550270291045
1774159854485412400,5.988412353515625,0.7623432392708956,9.761084180611372,-0.5572021768128499
1774159854505403400,6.0084033203125,0.771622085878253,9.753321729916333,-0.6690812374014407
1774159854525393400,6.028393310546875,0.8533918759398161,9.740369893884658,-0.7531804202586412
1774159854545384400,6.048384521484375,0.9030134004600345,9.734526428553462,-0.7706694613285362
1774159854565374500,6.06837451171875,0.8878509026415645,9.7376641420573,-0.748332176509872
1774159854585364200,6.0883642578125,0.8161834774646908,9.746982590022682,-0.7075167665187269
1774159854605355500,6.10835546875,0.652688832461834,9.760738728174566,-0.687281203219667
1774159854625345500,6.128345458984375,0.43733438249267637,9.775382170554995,-0.6488537843436002
1774159854645336300,6.14833642578125,0.27619389940053224,9.78658160996139,-0.562972613440454
1774159854665326300,6.168326416015625,0.17281274590836837,9.793847217050194,-0.4701589033277705
1774159854685316400,6.18831640625,0.030601878632849546,9.798673029771447,-0.3942855508936569
1774159854705307400,6.208307373046875,-0.08109642997779883,9.801245510607957,-0.3152821933381259
1774159854725297400,6.22829736328125,-0.1405745096617844,9.80250632432401,-0.24796425034133715
1774159854745288400,6.248288330078125,-0.17286986465677617,9.802952899047732,-0.2064382626617327
1774159854765278500,6.268278564453125,-0.17732717285919933,9.803405318990349,-0.17940734013412146
1774159854785268200,6.288268310546875,-0.19103552634660154,9.803442143869399,-0.16254441333962605
1774159854805259500,6.308259521484375,-0.2941766422715038,9.8012034250319,-0.1423493738471996
1774159854825249500,6.32824951171875,-0.4008961646724492,9.797627904632687,-0.12718645590362138
1774159854845239300,6.3482392578125,-0.4476210909683257,9.795613642200827,-0.12632763798404484
1774159854865230300,6.368230224609375,-0.4491608677562326,9.795320212212204,-0.14260137584689073
1774159854885220400,6.388220458984375,-0.45073082048669455,9.795015091785787,-0.1576990556676872
1774159854905211400,6.40821142578125,-0.46687297699227925,9.79436042726934,-0.1514262590085156
1774159854925201400,6.428201416015625,-0.4659164434524253,9.794873052966594,-0.1173421026343014
1774159854945191400,6.44819140625,-0.4224683834027499,9.797207633394002,-0.08147588514890522
1774159854965182200,6.46818212890625,-0.33350853570662436,9.800839267894625,-0.05201103630552534
1774159854985172200,6.488172119140625,-0.21685186718637123,9.80414999987781,-0.04494236286119558
1774159855005163500,6.50816357421875,-0.11110787528669461,9.805891290587187,-0.050702565789152866
1774159855025153300,6.5281533203125,-0.09471180795212275,9.806181213444471,-0.015535531240300042
1774159855045143300,6.548143310546875,-0.06682662951562088,9.806345464095473,0.03888438712963834
1774159855065134300,6.56813427734375,-0.006773202766492613,9.806038005581497,0.10947372561306692
1774159855085124600,6.58812451171875,0.06420119464916642,9.804835059532522,0.1774636769867502
1774159855105114400,6.6081142578125,0.1415940254352521,9.80319606015384,0.21837162409955635
1774159855125105400,6.62810546875,0.20705856825085356,9.801189981028436,0.2533392761768773
1774159855145095400,6.648095458984375,0.20476252973554654,9.799614694535732,0.30990773375816644
1774159855165086200,6.668086181640625,0.18354924397813155,9.798178524252771,0.36385493945777414
1774159855185076500,6.688076416015625,0.1640609005834907,9.797736625704168,0.3844947727087885
1774159855205066500,6.70806640625,0.14989176118392497,9.799016144120692,0.35666802362836897
1774159855225057300,6.728057373046875,0.13785419958611017,9.801619604617356,0.28226445148587226
1774159855245047300,6.74804736328125,0.11073877711282111,9.804420633512734,0.17739576284969225
1774159855265037600,6.76803759765625,0.08698508615759201,9.805931622597575,0.08064750803336501
1774159855285027600,6.788027587890625,0.07127911997903139,9.806372936624287,0.01862777533432818
1774159855305017600,6.808017578125,0.06360242960499599,9.806426712638139,-0.018532760844501898
1774159855325008600,6.828008544921875,0.061421318139671346,9.8062589548558,-0.062410703636356625
1774159855344998700,6.84799853515625,0.04406092211785726,9.805858557361363,-0.11650701265018433
1774159855364988700,6.86798876953125,0.01666608448156621,9.805056593328715,-0.17600940479151903
1774159855384979500,6.8879794921875,-0.00453905364577804,9.80411375952065,-0.2230079055980779
1774159855404969700,6.9079697265625,-0.024933068898948838,9.803282569393515,-0.25575733363665637
1774159855424960500,6.92796044921875,-0.04394628732881974,9.802402279427646,-0.2852915624883957
1774159855444950500,6.947950439453125,-0.05918675945405848,9.801236158257723,-0.3204005227325484
1774159855464940500,6.9679404296875,-0.06328925830286461,9.799600081488489,-0.36633915748894214
1774159855484931600,6.987931640625,-0.06596756500087213,9.7978085218966,-0.4110642517371103
1774159855504921600,7.007921630859375,-0.07053673607993405,9.795582662540674,-0.46040136982537805
1774159855524911600,7.02791162109375,-0.0660181900764117,9.792872819060086,-0.5154368456857279
1774159855544902700,7.047902587890625,-0.04128156163159292,9.79008523416817,-0.568264765031822
1774159855564892400,7.067892333984375,-0.0064598299641394985,9.786779178360105,-0.6239230489656329
1774159855584882400,7.08788232421875,0.02423812717103865,9.784001530340314,-0.6656679218266159
1774159855604873700,7.107873779296875,0.060858889350784005,9.78294529928565,-0.6787279674731195
1774159855624863700,7.12786376953125,0.10657022272390312,9.783214179354905,-0.6691611707698554
1774159855644854500,7.1478544921875,0.15129786512218416,9.784842072817682,-0.635886750742793
1774159855664844500,7.167844482421875,0.21752664290908721,9.786482241240144,-0.5897673525920137
1774159855684834600,7.18783447265625,0.289675458394736,9.786894329172373,-0.550604860907048
1774159855704825600,7.20782568359375,0.3527285287549719,9.785925191879272,-0.530690200125426
1774159855724815600,7.227815673828125,0.38593521730806674,9.783648479118943,-0.549251510069333
1774159855744805600,7.2478056640625,0.38566951557658613,9.77835680245161,-0.6366955098424106
1774159855764796400,7.26779638671875,0.38250458527226,9.76828549029231,-0.7776145312260836
1774159855784786700,7.28778662109375,0.38237701336983587,9.75553005361557,-0.9240288620904088
1774159855804777700,7.30777783203125,0.3917467896636575,9.742631993597746,-1.047879698164761
1774159855824767500,7.327767578125,0.39950098398700357,9.733120653408765,-1.1301153521724046
1774159855844757500,7.347757568359375,0.3738857369435951,9.732163206553459,-1.1469970019336788
1774159855864748500,7.36774853515625,0.3188546449974179,9.739255795162915,-1.102552076333761
1774159855884738600,7.387738525390625,0.2619567362660542,9.744963066893815,-1.0665147674646227
1774159855904728600,7.407728515625,0.21312807915657758,9.749081023606658,-1.0394103413093834
1774159855924719600,7.4277197265625,0.16195263972524554,9.753063371241092,-1.0109124149691313
1774159855944709600,7.447709716796875,0.10873266145479865,9.755789581334591,-0.9915360257826745
1774159855964699400,7.467699462890625,0.0643746789193945,9.757254393190145,-0.9809514303389936
1774159855984690700,7.487690673828125,0.03563623780455673,9.758710437217355,-0.9678357089824974
1774159856004680700,7.5076806640625,0.029737841115461194,9.760624161884188,-0.9485248593129217
1774159856024671500,7.52767138671875,0.039836418024310837,9.761353645202517,-0.9406264342132955
1774159856044661500,7.54766162109375,0.04888001740395557,9.758967626848817,-0.9646586863815784
1774159856064651500,7.567651611328125,0.05941798809377942,9.755572723713517,-0.9978178825311362
1774159856084642600,7.587642578125,0.074347097281483,9.752426826903223,-1.0271405692577362
1774159856104632600,7.607632568359375,0.07975956448400393,9.748920280086994,-1.059525566164404
1774159856124622600,7.62762255859375,0.08365876387963071,9.745444712930917,-1.0907244220264256
1774159856144613600,7.647613525390625,0.09773846229691989,9.743430450499057,-1.107437291092053
1774159856164603600,7.667603759765625,0.13220364474481902,9.742419227629899,-1.112730502129346
1774159856184593700,7.68759375,0.18297115182923152,9.742414551454782,-1.105563386978954
1774159856204584700,7.707584716796875,0.23641550430692732,9.74545757241249,-1.0679613860763608
1774159856224574500,7.727574462890625,0.3080893957572058,9.744725166484713,-1.0563073347702623
1774159856244565500,7.7475654296875,0.3797780098525807,9.738648476919531,-1.0885118605434894
1774159856264556000,7.76755615234375,0.45521534548960624,9.732707980954647,-1.1124576034720985
1774159856284545800,7.7875458984375,0.5386283727135509,9.734095635920763,-1.0619170644108205
1774159856304537000,7.807537109375,0.6246336814530193,9.740705993971227,-0.9480779923282563
1774159856324527000,7.827527099609375,0.7122687102861702,9.7475484072119,-0.8051984114613383
1774159856344517000,7.84751708984375,0.7926183313515037,9.752709150975942,-0.6533025073807687
1774159856364508000,7.8675078125,0.8356851735312492,9.7569451811105,-0.5234857851719483
1774159856384498000,7.887497802734375,0.8385218582618981,9.758491241508722,-0.48900549648646263
1774159856404488200,7.90748828125,0.8201949050631374,9.757480018639564,-0.5378339344002306
1774159856424479000,7.92747900390625,0.7912819681812078,9.757189511260389,-0.5843565430570393
1774159856444469000,7.947468994140625,0.7629336063794792,9.758934309101104,-0.5928917682228609
1774159856464459000,7.967458984375,0.7420579916112124,9.760615978577732,-0.5916895893588662
1774159856484449800,7.98744970703125,0.7317407418668269,9.75873674070239,-0.6340459451816975
1774159856504440000,8.007440185546875,0.7142168486792594,9.754340551570058,-0.7163280686795711
1774159856524431000,8.02743115234375,0.675554598134011,9.748820911365748,-0.821285111452639
1774159856544420900,8.0474208984375,0.6209964209292084,9.745109197366236,-0.9041938424162567
1774159856564411000,8.067410888671875,0.5784530546342954,9.74316332399547,-0.9521222262177615
1774159856584402200,8.087402099609376,0.554435196317546,9.741218035146593,-0.985729385330528
1774159856604392000,8.107391845703125,0.552636512865126,9.738830847749114,-1.010028252545744
1774159856624382000,8.1273818359375,0.5563801929054781,9.736344291630386,-1.0317170833930374
1774159856644373000,8.147373046875,0.5476997140500695,9.733718619301914,-1.0607209134288131
1774159856664363000,8.167363037109375,0.538283212537691,9.730533559525012,-1.0942529614787548
1774159856684352800,8.187352783203124,0.5275688167018816,9.726419694465399,-1.1352640401724725
1774159856704344000,8.207343994140626,0.5036681550240144,9.723761288911104,-1.168395106206089
1774159856724334000,8.227333984375,0.47200833058673886,9.722464819359779,-1.1921793018974363
1774159856744324000,8.247323974609374,0.4410868668939918,9.720751585701107,-1.217707930103317
1774159856764315000,8.26731494140625,0.41503896405436097,9.716963883855938,-1.2564810936771333
1774159856784305000,8.287304931640625,0.4051142207589,9.711991940662264,-1.2974968485459684
1774159856804295200,8.307295166015624,0.4116401884615421,9.707205290907622,-1.3308305244795977
1774159856824286000,8.327285888671875,0.4189424742989242,9.70388637561798,-1.3525837988652287
1774159856844276000,8.34727587890625,0.42726621213853355,9.701788526555895,-1.3649712790124118
1774159856864266000,8.367265869140626,0.44301494887974113,9.699920394596457,-1.3731960865221917
1774159856884257000,8.387257080078125,0.4698900963237509,9.696868021288514,-1.3857641839332877
1774159856904247000,8.4072470703125,0.5302237516574562,9.69238123126328,-1.3953557497516274
1774159856924238000,8.427238037109374,0.6045102002263069,9.68887351540327,-1.3894851041525602
1774159856944227800,8.447227783203125,0.6865002089098096,9.684282680481672,-1.3833863488860427
1774159856964217900,8.4672177734375,0.7892726011201738,9.679112584367394,-1.3646218810528516
1774159856984209200,8.487209228515624,0.9142872933421283,9.672707978022098,-1.3316101305499672
1774159857004199000,8.507198974609375,1.0081996488790959,9.668884620341657,-1.2909709539085625
1774159857024189000,8.52718896484375,1.0319095372252165,9.668104283618927,-1.2780014360897243
1774159857044180000,8.547179931640626,0.9993000108476727,9.667672321942447,-1.3068671728290617
1774159857064170000,8.567169921875,0.9627993222504854,9.664506551387905,-1.3567293742373585
1774159857084159700,8.58715966796875,0.9485546699292957,9.654785952362417,-1.4337804652139543
1774159857104151000,8.607151123046876,0.9595750995069742,9.638267948281765,-1.5340721465244889
1774159857124141000,8.62714111328125,0.9705301356982439,9.627375967389344,-1.5943883757993578
1774159857144131000,8.647131103515624,0.9407597782693803,9.631900751337408,-1.5848749897837637
1774159857164121900,8.667121826171876,0.868794466124475,9.644792381614446,-1.5471199902765451
1774159857184112000,8.687112060546875,0.7805243542581796,9.657807930532098,-1.5125821992501616
1774159857204102100,8.70710205078125,0.6823260650303214,9.669456867271661,-1.485406315293908
1774159857224093000,8.727093017578126,0.593883336543478,9.678864747086166,-1.4619450679466128
1774159857244083000,8.7470830078125,0.5145594052640721,9.688327571958302,-1.428963712581992
1774159857264074000,8.767073974609374,0.4361864910991862,9.695023854726552,-1.4094739992141723
1774159857284065000,8.78706494140625,0.3635907355636358,9.697605103391409,-1.412318867251277
1774159857304055000,8.807054931640625,0.30329956766478716,9.698783499521017,-1.4184481637865305
1774159857324045000,8.827045166015624,0.24759132537571713,9.701186469009517,-1.412815564727038
1774159857344036000,8.8470361328125,0.19104630346894264,9.701416186112166,-1.4199949548371136
1774159857364026000,8.867026123046875,0.128320474035386,9.698995680966974,-1.4433978961259126
1774159857384016100,8.88701611328125,0.06510172825204208,9.694688923683762,-1.4762025797493754
1774159857404007000,8.9070068359375,0.010770872980111744,9.69019687296152,-1.5067704442314802
1774159857423997000,8.926996826171875,-0.029889542812143916,9.688959440121055,-1.5144450705125927
1774159857443987000,8.946987060546874,-0.0482965229941532,9.690917003929615,-1.5013951809339225
1774159857463978000,8.96697802734375,-0.06618935452539007,9.69443348761797,-1.4778281351245939
1774159857483968000,8.986968017578125,-0.08323780765435658,9.698332833144068,-1.4511395962938665
1774159857503958000,9.0069580078125,-0.09764051834777929,9.7014991882205,-1.428895031259954
1774159857523948800,9.02694873046875,-0.08888149436344392,9.70467197303772,-1.4077803470388055
1774159857543939000,9.04693896484375,-0.06654727371812331,9.707164374375342,-1.391732590818405
1774159857563929000,9.06692919921875,-0.04003350236583501,9.710850369411707,-1.366816176226735
1774159857583920000,9.086920166015625,0.0051199904869019515,9.719487849375605,-1.304575408630073
1774159857603910000,9.106909912109375,0.07038337214912753,9.732359021386504,-1.202763824275881
1774159857623900000,9.12689990234375,0.13373658079998568,9.747207630950212,-1.069785386633128
1774159857643891200,9.14689111328125,0.17804339483715592,9.760706579470634,-0.9312845323070883
1774159857663881000,9.166880859375,0.20775389357125384,9.770886612701416,-0.8105491248395293
1774159857683872000,9.1868720703125,0.2392156564194709,9.777637256005406,-0.714808677092567
1774159857703862000,9.206862060546875,0.26628258184222503,9.78119056457281,-0.654057490466535
1774159857723852000,9.22685205078125,0.28255557991955427,9.782539641094207,-0.6264677650123834
1774159857743843000,9.246843017578126,0.2532525477414951,9.784728091049194,-0.604440203730017
1774159857763833000,9.2668330078125,0.16764244886469096,9.787357270509004,-0.5915453951152041
1774159857783823000,9.286822998046874,0.07911256268420257,9.787487034368514,-0.6076544165361673
1774159857803814000,9.30681396484375,0.010997154875012348,9.7851641443789,-0.6487112340677529
1774159857823804000,9.326803955078125,-0.04407591419101227,9.780569217804073,-0.7133684882216155
1774159857843794200,9.346794189453124,-0.06836913255015388,9.775364050376414,-0.7797407295998185
1774159857863785000,9.366784912109376,-0.08152338668559678,9.77080361059308,-0.8337465336188673
1774159857883775000,9.38677490234375,-0.10335155293834396,9.767070269283652,-0.8740957874029874
1774159857903765000,9.406764892578124,-0.12146270796195603,9.76528280134499,-0.8915509262032806
1774159857923756000,9.426756103515626,-0.13509332003802993,9.76395827474296,-0.904014101935178
1774159857943746000,9.44674609375,-0.1482688178909011,9.761680977460742,-0.9262765679519623
1774159857963736000,9.466736083984374,-0.16687802209714428,9.758038821566105,-0.960845557834208
1774159857983727000,9.48672705078125,-0.19130610518259927,9.75385013770461,-0.9980994028862565
1774159858003716900,9.506716796875,-0.2245782236547209,9.749762576130031,-1.0305712743587792
1774159858023707000,9.526706787109376,-0.2679195719269104,9.744668467861413,-1.0677258237548173
1774159858043698200,9.5466982421875,-0.31871023155804723,9.73801485519111,-1.113503678458929
1774159858063688000,9.56668798828125,-0.34146325757075097,9.732978614589571,-1.1501887837123126
1774159858083678000,9.586677978515626,-0.34619941924717273,9.728415836718678,-1.1867780273757875
1774159858103669000,9.6066689453125,-0.3469281353805214,9.723279642874003,-1.2279575945042074
1774159858123659000,9.626658935546875,-0.34605705163441597,9.717873399916291,-1.2702611972264946
1774159858143649000,9.64664892578125,-0.3456360862759873,9.712955817258358,-1.3074381045848131
1774159858163640000,9.66664013671875,-0.3286562368372455,9.71073112694621,-1.3281823480583728
1774159858183630000,9.686630126953125,-0.2950349030686542,9.710877257418632,-1.334996411987394
1774159858203619800,9.706619873046876,-0.2562687172248959,9.711401573553681,-1.3391772048033772
1774159858223611100,9.726611083984375,-0.20140178459817543,9.711835873317717,-1.345389357316494
1774159858243601200,9.74660107421875,-0.11506992905177175,9.712885090109705,-1.3479618381530045
1774159858263591200,9.766591064453126,-0.03841733587346971,9.712227502983808,-1.3570323027066886
1774159858283580400,9.786580322265625,-0.014852299358136952,9.708402976259588,-1.3845830113247035
1774159858303570200,9.806570068359376,-0.07592227417633403,9.70452291995585,-1.409563284932822
1774159858323560200,9.826560302734375,-0.1666491635110229,9.700746908548474,-1.4276356788486242
1774159858343550500,9.846550537109374,-0.22605858013927935,9.698490654054284,-1.4347707914255559
1774159858363541200,9.866541259765626,-0.27491248128786683,9.697684013846516,-1.4316896304145454
1774159858383531300,9.88653125,-0.3232619765782729,9.700029700189829,-1.4054621332243085
1774159858403521300,9.906521240234374,-0.35733182129934427,9.705203303435445,-1.3607796725414694
1774159858423512600,9.9265126953125,-0.3692703155700117,9.708891052037476,-1.3309690561674534
1774159858443502300,9.94650244140625,-0.37210268945172426,9.710704238939284,-1.3168670271873473
1774159858463492400,9.966492431640624,-0.3751846907129511,9.712544898369908,-1.3023442885771392
1774159858483483400,9.9864833984375,-0.38197369326595215,9.71511328755319,-1.2810349585667251
1774159858503473400,10.006473388671875,-0.3917475203160196,9.718779408845306,-1.2499021536782384
1774159858523463200,10.026463134765624,-0.40956148249134416,9.722697459071874,-1.2131888452436774
1774159858543454500,10.046454345703125,-0.43467586734052743,9.726687990012765,-1.171741567089781
1774159858563444500,10.066444580078125,-0.45350854157172144,9.730864983436465,-1.129147237792611
1774159858583434200,10.086434326171876,-0.46468818029910325,9.73527637013793,-1.085751602049917
1774159858603425300,10.10642529296875,-0.47735297955032435,9.739145320525765,-1.0447927650000899
1774159858623415300,10.126415283203125,-0.4917965885097161,9.739927995336055,-1.0306874480843544
1774159858643405300,10.1464052734375,-0.5117575726510957,9.73600234632492,-1.0576968894325196
1774159858663396400,10.166396240234375,-0.5345354773767292,9.729394910883903,-1.1061354147132485
1774159858683386400,10.186386474609375,-0.5491823903558776,9.720898300695419,-1.1717211818888782
1774159858703376400,10.20637646484375,-0.565462055636011,9.711984926399587,-1.2361055373854934
1774159858723367400,10.226367431640625,-0.605135127191618,9.707164958897232,-1.2550481382645666
1774159858743357400,10.246357421875,-0.6631731824014335,9.705672089990973,-1.237138533695042
1774159858763347500,10.266347412109376,-0.7110907525479793,9.705270523452759,-1.2134501265283673
1774159858783338200,10.286338134765625,-0.7210086277112364,9.707291800147294,-1.1912284309133887
1774159858803328300,10.306328369140624,-0.690737188892439,9.714391403019428,-1.1505934920556842
1774159858823318300,10.326318359375,-0.6481497277274727,9.725997669661044,-1.0748309795849025
1774159858843309300,10.346309326171875,-0.5775623528722673,9.74174644293487,-0.9670395171035081
1774159858863299300,10.36629931640625,-0.5480983579788357,9.756111652895807,-0.8296160827506333
1774159858883289300,10.386289306640625,-0.51961168368496,9.770214997050166,-0.6658021426655352
1774159858903280400,10.4062802734375,-0.45619719613380727,9.782936531457304,-0.5064002468690276
1774159858923270400,10.4262705078125,-0.4098692697988823,9.79053473150134,-0.38450302908048034
1774159858943260400,10.446260498046875,-0.3958411463052034,9.793567231065035,-0.3158048289727419
1774159858963251500,10.46625146484375,-0.39226800052616745,9.795115045028924,-0.2687544518484734
1774159858983241200,10.4862412109375,-0.38277708207070826,9.796256031757592,-0.23924628901975228
1774159859003231200,10.506231201171875,-0.3735361563209444,9.796962718722224,-0.22447821561265735
1774159859023222500,10.526222412109375,-0.380130220823735,9.796488671469687,-0.2338457086178474
1774159859043212300,10.54621240234375,-0.4066911512194201,9.794101484072208,-0.2838400667721405
1774159859063202300,10.566202392578125,-0.44594603389557447,9.790401460510491,-0.3457381949435919
1774159859083193300,10.586193359375,-0.49170891022626306,9.785821731504797,-0.4078054326042533
1774159859103183400,10.606183349609376,-0.5335154501466081,9.781106977942585,-0.4644335844835266
1774159859123173000,10.626173095703125,-0.566209951393865,9.776797298049926,-0.5138468730805441
1774159859143163400,10.646163330078124,-0.5900462425986305,9.772913734614848,-0.5589185522766783
1774159859163154400,10.666154541015626,-0.6099039490286261,9.769119018507004,-0.6022738560089841
1774159859183144400,10.68614453125,-0.6276131356552243,9.765327225008607,-0.6441248561255634
1774159859203134200,10.70613427734375,-0.6516655538287014,9.76095675483942,-0.685169544827938
1774159859223125500,10.72612548828125,-0.6828636790383606,9.755925774934887,-0.7252632164157926
1774159859243115500,10.746115478515625,-0.7181712853934615,9.750572138947248,-0.7622144983246922
1774159859263105300,10.766105224609374,-0.7475644800730049,9.746164843899011,-0.7898090460844337
1774159859283098600,10.7860986328125,-0.7639880838684737,9.743615743938088,-0.8053989024695009
1774159859303088600,10.806088623046875,-0.7707406268686056,9.742318105342983,-0.8146064374063163
1774159859323078700,10.82607861328125,-0.7724674506612121,9.741612002900242,-0.8213871105223893
1774159859343069400,10.8460693359375,-0.77050163048096,9.741754626241326,-0.8215455890197306
1774159859363059500,10.8660595703125,-0.7590357952233403,9.743402977970241,-0.8126004313461482
1774159859383049500,10.886049560546875,-0.7419921598333865,9.745728790569304,-0.800366022868827
1774159859403040800,10.906040771484374,-0.7297907768428326,9.747162038242816,-0.7941288820449263
1774159859423030500,10.926030517578125,-0.7139621432658284,9.74840590082407,-0.7932479344919323
1774159859443020500,10.9460205078125,-0.6765217626657336,9.751340200710295,-0.78999558163248
1774159859463011600,10.966011474609376,-0.6120386595023796,9.755798349162935,-0.7875150899283587
1774159859483001600,10.986001708984375,-0.5334785156697035,9.76039619834721,-0.7876890582557767
1774159859502991600,11.00599169921875,-0.45390353223867713,9.764956053608655,-0.7810186405811458
1774159859522982700,11.025982666015626,-0.38430542414914814,9.770740482228994,-0.7452128754455596
1774159859542972700,11.04597265625,-0.3373115447187796,9.776764564824104,-0.6866586874071509
1774159859562962400,11.06596240234375,-0.31246432290580123,9.780736975586414,-0.6402857894193381
1774159859582952400,11.085952392578125,-0.3446516052832827,9.779956638863682,-0.6356274422194809
1774159859602943700,11.10594384765625,-0.39991610412653533,9.775079388216138,-0.6769571584083139
1774159859622933500,11.12593359375,-0.4411303407095372,9.76767057326436,-0.7539298503864557
1774159859642923500,11.145923583984375,-0.4778986307343468,9.756787360200285,-0.8643563375465572
1774159859662914600,11.16591455078125,-0.5147284782206639,9.744122524416445,-0.9785383047826588
1774159859682904600,11.185904541015624,-0.546910098042339,9.731650580856204,-1.079939335574582
1774159859702894600,11.20589453125,-0.573622419607453,9.724015555933118,-1.1335334900528191
1774159859722885600,11.2258857421875,-0.6018460955835878,9.721153152239323,-1.1433901365481316
1774159859742875600,11.245875732421876,-0.6303033245872706,9.720583243396877,-1.1328525951165704
1774159859762865700,11.26586572265625,-0.6502670852076262,9.720506671029328,-1.1221754990838468
1774159859782856700,11.285856689453125,-0.6351088251728564,9.722010061329602,-1.1178318438563495
1774159859802846700,11.3058466796875,-0.6196029207441955,9.721404496651887,-1.131711535322666
1774159859822836700,11.325836669921875,-0.6259186797622591,9.716336691868305,-1.1710831031810491
1774159859842826500,11.345826416015624,-0.6415353510890156,9.71031962353587,-1.21182705537118
1774159859862817500,11.365817626953126,-0.6622671004071832,9.704927993625402,-1.2434480091027915
1774159859882807600,11.3858076171875,-0.6807086198963225,9.701863929879664,-1.2573261661991477
1774159859902797800,11.4057978515625,-0.7065520862050354,9.700196288928389,-1.2559317892313002
1774159859922788600,11.42578857421875,-0.7260621847737581,9.69985668171048,-1.2473898785963653
1774159859942778600,11.445778564453125,-0.7366711840063334,9.699740946376323,-1.2420654687032102
1774159859962768600,11.4657685546875,-0.7498944573905318,9.698380179417132,-1.2447691747039555
1774159859982759700,11.485759765625,-0.7621856375563889,9.697588736778497,-1.2434838110685347
1774159860002749700,11.505749755859375,-0.7690556694563477,9.699273913386463,-1.225979280168563
1774159860022739700,11.52573974609375,-0.7872384649440646,9.700383335933088,-1.2054893037170171
1774159860042730500,11.54573046875,-0.8042413299322128,9.700566291284561,-1.1927284602127968
1774159860062720500,11.565720458984375,-0.8170753117378801,9.701772159942983,-1.1740478712707758
1774159860082710500,11.58571044921875,-0.8027597130723297,9.705720020785927,-1.1510665894601493
1774159860102701600,11.60570166015625,-0.7587777288090437,9.712750650075078,-1.1212057042036205
1774159860122691600,11.625691650390625,-0.7100497190624475,9.721122757101059,-1.0798116175416856
1774159860142681600,11.645681640625,-0.6429878879848867,9.73236428208351,-1.0188379472713918
1774159860162671600,11.665671630859375,-0.6257843127928674,9.742508659479022,-0.9286044994428754
1774159860182662400,11.685662353515625,-0.6502060757353901,9.749996969407796,-0.8277678976006806
1774159860202652700,11.705652587890626,-0.6629108051382004,9.755991825908422,-0.7426706436168402
1774159860222642700,11.725642578125,-0.6490105092752725,9.761054954516887,-0.6862725376337766
1774159860242633500,11.745633544921875,-0.61104000385385,9.765988319265842,-0.6499913370061665
1774159860262623500,11.76562353515625,-0.554934597207047,9.770997671860457,-0.6245150965746492
1774159860282611200,11.785611083984374,-0.508881176964566,9.775361712288856,-0.5947406474925577
1774159860302602200,11.805602294921876,-0.5118269115602597,9.777427997168898,-0.5570631336683407
1774159860322592300,11.82559228515625,-0.5397602628203109,9.778156895965337,-0.5164121204586699
1774159860342582300,11.845582275390624,-0.5566160840205848,9.777492879098654,-0.5110601649714633
1774159860362572300,11.865572265625,-0.5827520670024677,9.774528184074162,-0.5379488660167903
1774159860382563000,11.88556298828125,-0.6263676656387746,9.769579621756076,-0.5773568568954244
1774159860402553300,11.90555322265625,-0.6643737903628498,9.764679574754833,-0.6164760939605534
1774159860422543400,11.92554345703125,-0.7146057018663734,9.759043614694475,-0.6486766742110252
1774159860442534100,11.9455341796875,-0.7917628835659474,9.750882520070672,-0.6810391670249402
1774159860462524200,11.965524169921874,-0.8789746454857289,9.74064812630415,-0.719418435910344
1774159860482514200,11.98551416015625,-0.9605778468087315,9.729435242894292,-0.7653634638749063
1774159860502505200,12.005505126953125,-1.0238853668540715,9.718743753010035,-0.8173509138088673
1774159860522495200,12.0254951171875,-1.072273842447996,9.708782330965995,-0.8718697819165885
1774159860542485200,12.0454853515625,-1.1023924287926405,9.700620651820302,-0.9236278800740837
1774159860562476000,12.06547607421875,-1.1123765010599047,9.695554600602387,-0.9639696081388741
1774159860582466000,12.085466064453126,-1.1131738619826734,9.692348498037457,-0.99479429692626
1774159860602456300,12.105456298828125,-1.1047685102742164,9.691046183267234,-1.0166052928484977
1774159860622446300,12.1254462890625,-1.102429692063108,9.689382633969187,-1.0348304661732166
1774159860642437000,12.14543701171875,-1.1102090938929468,9.685356447193026,-1.063809527093917
1774159860662427100,12.16542724609375,-1.1093635829795152,9.681251934483647,-1.1013898276213556
1774159860682417200,12.185417236328124,-1.089710495743528,9.680529465427995,-1.1270475620996205
1774159860702408200,12.205408203125,-1.0288822983585297,9.687036363103985,-1.1283247424285858
1774159860722398200,12.225398193359375,-0.9269815013509243,9.701268886595964,-1.0938321057181806
1774159860742388200,12.24538818359375,-0.8702094474889337,9.711243752643465,-1.051126425001025
1774159860762379300,12.265379150390626,-0.8791559203367679,9.712127549740671,-1.0354057087779045
1774159860782369000,12.285369140625,-0.9384981900129467,9.705817635941505,-1.0424500743314624
1774159860802359000,12.305359130859374,-1.0008959748022257,9.699287357389926,-1.0451865866232664
1774159860822349300,12.325349365234375,-1.0405849380467087,9.696160749801992,-1.0353888307083396
1774159860842340400,12.34534033203125,-1.0768979220520705,9.691579851752518,-1.0411326350573449
1774159860862330000,12.365330078125,-1.128713303354755,9.683825584363937,-1.0582653369702397
1774159860882320100,12.385320068359375,-1.204836027440056,9.67300199253261,-1.0732111232981085
1774159860902311400,12.4053115234375,-1.2821851515151559,9.663133509469032,-1.072487631329149
1774159860922301200,12.42530126953125,-1.3279646136544645,9.662145667475462,-1.0246035250607877
1774159860942291200,12.445291259765625,-1.3441374575592577,9.66621627791524,-0.9633047144893556
1774159860962282200,12.4652822265625,-1.3429264743342995,9.67037339759469,-0.9223840174928307
1774159860982272300,12.485272216796876,-1.3419180279441176,9.67322469537258,-0.8935214225586503
1774159861002262000,12.505261962890625,-1.3375542797766624,9.675807113081216,-0.8718389483869076
1774159861022252300,12.525252197265624,-1.335166215596348,9.677154436036943,-0.8604662713054567
1774159861042243300,12.545243408203126,-1.3510092430248857,9.675817049953341,-0.8507205378387123
1774159861062233000,12.565233154296875,-1.3739799303762614,9.67386007066667,-0.8360738075226545
1774159861082223000,12.58522314453125,-1.4021329888015985,9.67178794056773,-0.8129748176164925
1774159861102214400,12.60521435546875,-1.4165722869120538,9.671614922088384,-0.7896623310901224
1774159861122204400,12.625204345703125,-1.4170989411346613,9.672865798932314,-0.7732237489212304
1774159861142194200,12.645194091796874,-1.4337519697718322,9.67195803643763,-0.7536387584853917
1774159861162185200,12.665185302734375,-1.448338713528961,9.670210900509357,-0.7481538973335177
1774159861182175200,12.68517529296875,-1.4654577522426844,9.667635497063397,-0.7480812704887241
1774159861202165200,12.705165283203126,-1.4724626625686883,9.66789268669486,-0.7308131056278944
1774159861222155300,12.7251552734375,-1.465219559572637,9.671617260175942,-0.6952320891588926
1774159861242146300,12.745146240234375,-1.4650110313884912,9.674227150413394,-0.658368120207265
1774159861262136300,12.76513623046875,-1.476681010916084,9.674255207464098,-0.6313204657405614
1774159861282127600,12.785127685546875,-1.4722957815691828,9.675829324913025,-0.617287629539147
1774159861302118700,12.80511865234375,-1.4312588377818465,9.68337199537754,-0.5951551100449636
1774159861322108400,12.8251083984375,-1.3629868271969259,9.69689198668599,-0.5319289116075262
1774159861342098400,12.845098388671875,-1.2934633552461863,9.711778590172528,-0.422747419539839
1774159861362088400,12.86508837890625,-1.2481046027369795,9.72244260752797,-0.29450507050827146
1774159861382079500,12.88507958984375,-1.2042474138971417,9.730472769248484,-0.19514915394419802
1774159861402069500,12.905069580078125,-1.145714341711998,9.738637955525517,-0.1290422855039127
1774159861422059500,12.9250595703125,-1.1031623902518302,9.744141229116916,-0.07158276996756903
1774159861442050600,12.945050537109376,-1.055000709151104,9.749721075075865,-0.016526304976473328
1774159861462040300,12.965040283203125,-1.035265131263435,9.751849319276213,0.00740031826395716
1774159861482030600,12.985030517578124,-1.0360387459844351,9.75174118272662,0.02359740213168552
1774159861502021600,13.005021728515626,-1.0331675744622946,9.752034612715244,0.02808851670558797
1774159861522011400,13.025011474609375,-1.0334367467924952,9.75202409132123,-0.020875340773630888
1774159861542001400,13.04500146484375,-1.0582808998655526,9.748879948076604,-0.09877707549650222
1774159861561991400,13.064991455078125,-1.1080188173070549,9.742034612226485,-0.18826785173155366
1774159861581982700,13.084982666015625,-1.1548813985079527,9.734501294112205,-0.27591278090421106
1774159861601972500,13.104972412109374,-1.1855611258666963,9.728072722369431,-0.35975850045699626
1774159861621962500,13.12496240234375,-1.1949733165301382,9.72371218907237,-0.43797578566875306
1774159861641953500,13.14495361328125,-1.1855457821670918,9.721704356381297,-0.5033364388516173
1774159861661943600,13.164943603515624,-1.1797595269158483,9.71893606071174,-0.566406789140217
1774159861681933300,13.184933349609375,-1.1858713608596474,9.714418291026353,-0.627828970362991
1774159861701923600,13.204923583984375,-1.2061856884833424,9.707869892296195,-0.687594141626358
1774159861721914600,13.22491455078125,-1.2145374833736569,9.703003163042665,-0.7396122058942913
1774159861741904400,13.244904296875,-1.2027754416484384,9.701379945755004,-0.7790585925545543
1774159861761894400,13.264894287109374,-1.1693437121678143,9.70349474595189,-0.8032655437026173
1774159861781885700,13.2848857421875,-1.1263387562431395,9.708043495297431,-0.8097112857758998
1774159861801875700,13.304875732421875,-1.092714207604155,9.712628485000133,-0.8007518073160201
1774159861821865500,13.324865478515624,-1.0850445497591048,9.7142739141196,-0.7911769734367727
1774159861841855500,13.34485546875,-1.0987851980809122,9.713199562886357,-0.7853727441374212
1774159861861846500,13.364846435546875,-1.0869443189658223,9.71604443092346,-0.766431531497836
1774159861881836300,13.384836181640624,-1.0387192172400652,9.725603701907396,-0.7099786996528505
1774159861901826600,13.40482666015625,-0.9558301408249884,9.7394720682621,-0.6320066213738172
1774159861921817600,13.424817626953125,-0.8738341407921165,9.752225751373171,-0.5485368589939549
1774159861941807600,13.4448076171875,-0.8598978968329727,9.757143334031104,-0.4786661445081234
1774159861961797400,13.46479736328125,-0.8768778193369507,9.757985630074144,-0.42800011590365317
1774159861981787400,13.484787353515625,-0.8840638583835214,9.75892378770709,-0.39014045044556256
1774159862001778700,13.50477880859375,-0.866994065639004,9.760859724205732,-0.37988753464166075
1774159862021768400,13.5247685546875,-0.8448434624988586,9.762495216453075,-0.38770518612265586
1774159862041758500,13.544758544921875,-0.8428671209245919,9.762249717259406,-0.39804625513404607
1774159862061749500,13.56474951171875,-0.8574589061830192,9.760308520063758,-0.41412689071074127
1774159862081739500,13.584739501953125,-0.8637341139949858,9.758973472067714,-0.4322065546175465
1774159862101729300,13.604729248046874,-0.8848418570186942,9.757019415390491,-0.4335900448651984
1774159862121719600,13.624719482421876,-0.9096040308967233,9.755250652152299,-0.42201789968889203
1774159862141710600,13.644710693359375,-0.9276721870288253,9.754230661454796,-0.40591110675763337
1774159862161700600,13.66470068359375,-0.9483261218704283,9.753225868326425,-0.38163335539568216
1774159862181690400,13.6846904296875,-0.9809151169165968,9.75105378498435,-0.3537511863335967
1774159862201681700,13.704681640625,-1.0295975339557975,9.746609080535173,-0.3375276351548731
1774159862221671700,13.724671630859374,-1.0707160916119813,9.742153854691981,-0.3382308515207842
1774159862241661400,13.744661376953125,-1.0951341282274574,9.738908589160442,-0.35316078269239515
1774159862261651500,13.7646513671875,-1.1268007477317006,9.734524674987792,-0.37378940042965114
1774159862281641500,13.784641357421876,-1.1600525175355374,9.729763159674405,-0.39548100775592027
1774159862301631500,13.804631591796875,-1.1968148527435958,9.724322429925202,-0.4190025704557076
1774159862321621500,13.82462158203125,-1.2386733420468865,9.718426357623935,-0.43389078137744214
1774159862341612300,13.8446123046875,-1.2745911892548203,9.713544430801273,-0.43913704800046977
1774159862361602300,13.864602294921875,-1.2986980410292743,9.710576813167332,-0.43412897404748946
1774159862381592300,13.88459228515625,-1.316483288566768,9.708932553091644,-0.4169799420543015
1774159862401582600,13.90458251953125,-1.3276000181257723,9.708590607786178,-0.388740447454527
1774159862421573400,13.924573486328125,-1.3243188044980168,9.710406132775544,-0.3529666848924011
1774159862441563400,13.9445634765625,-1.2973439960718154,9.715212656274437,-0.31925252174120394
1774159862461553400,13.964553466796875,-1.2538830400079488,9.721645319670438,-0.2963162115834653
1774159862481544400,13.98454443359375,-1.1889928538810461,9.730467508551477,-0.2732913280931301
1774159862501534500,14.004534423828124,-1.135458978222683,9.737909641250967,-0.2329068751314655
1774159862521524500,14.0245244140625,-1.1469598847936837,9.73760627439022,-0.18415806005885824
1774159862541514500,14.044514404296875,-1.1654975581336766,9.735945647701621,-0.15288374607414007
1774159862561505300,14.06450537109375,-1.1698010274812578,9.7357030711174,-0.13422814544290304
1774159862581495300,14.084495361328125,-1.1718914238892495,9.735744572171567,-0.1111295665286947
1774159862601485600,14.104485595703125,-1.135746636057645,9.740299751257895,-0.08375556618445552
1774159862621476400,14.124476318359376,-1.126518496724218,9.741531923401356,-0.06236667726496234
1774159862641466400,14.14446630859375,-1.125761248616129,9.741762809547781,-0.03325991201109718
1774159862661456400,14.164456298828124,-1.115759129235521,9.742952896115183,-0.018358563046576456
1774159862681446400,14.1844462890625,-1.1161166374363005,9.74286404878795,-0.03578408759331796
1774159862701437400,14.2044375,-1.1341857434164733,9.740507256528735,-0.0807346017949283
1774159862721427500,14.224427490234374,-1.173261908524856,9.73514660627842,-0.14407860879260115
1774159862741417500,14.24441748046875,-1.2226642373364418,9.727961663210392,-0.20548554678047073
1774159862761408300,14.264408203125,-1.2911316974282263,9.71765069707632,-0.2658134299605153
1774159862781398300,14.284398193359374,-1.3532199048116802,9.707326286938786,-0.3271087881995365
1774159862801388500,14.304388427734375,-1.3937372086390851,9.699441086646914,-0.3856669217607006
1774159862821378600,14.324378662109375,-1.429395820388943,9.691657593163848,-0.44606509369798003
1774159862841369300,14.344369384765624,-1.4601925251908598,9.684178635585308,-0.5048582781240344
1774159862861359400,14.364359375,-1.4805360789090394,9.678106622195243,-0.5591300030702725
1774159862881349400,14.384349365234375,-1.4862993186108766,9.674646837130188,-0.6020779681107029
1774159862901340400,14.40434033203125,-1.47439436128363,9.674674309659004,-0.63026014303267
1774159862921330400,14.424330322265625,-1.4460057405367492,9.678160398209094,-0.6423923332445323
1774159862941320400,14.444320556640625,-1.4033321354582904,9.684699444589018,-0.6384587931878865
1774159862961310500,14.464310546875,-1.342633482737094,9.694493693372607,-0.6201019563075154
1774159862981301200,14.48430126953125,-1.2718459821999073,9.705747493314743,-0.5926670195562764
1774159863001291300,14.504291259765624,-1.203556801284477,9.716104636678098,-0.5649572479190305
1774159863021281500,14.524281494140626,-1.1372776450172066,9.725102182126045,-0.5471317779690027
1774159863041272300,14.544272216796875,-1.0729634321473538,9.733452661842108,-0.5282186223801225
1774159863061262300,14.564262451171874,-1.0205571722794324,9.739998137962818,-0.5111773981429636
1774159863081252400,14.58425244140625,-0.966368193713203,9.746737675350904,-0.4874642583938315
1774159863101242400,14.604242431640625,-0.9225910113070159,9.751732999420165,-0.4721502963406965
1774159863121233400,14.6242333984375,-0.8792894835885614,9.75562357711792,-0.47440483380183573
1774159863141223400,14.644223388671875,-0.8666073313437401,9.756754626974462,-0.47449130650889126
1774159863161213400,14.66421337890625,-0.8875594454143196,9.754549225884675,-0.4810291473124176
1774159863181204200,14.684204345703124,-0.8914400862399489,9.754580790066719,-0.4731461024450138
1774159863201194200,14.7041943359375,-0.9032556847833096,9.753438049772381,-0.47430250593852247
1774159863221184500,14.7241845703125,-0.9404195134643465,9.748749599695206,-0.4978835802732035
1774159863241174500,14.744174560546876,-0.9909798532046377,9.741201668533682,-0.5453121247937902
1774159863261165300,14.764165283203125,-1.0372757404334843,9.733543847256898,-0.5937712544711307
1774159863281156000,14.784156005859375,-1.0545001392178237,9.730941555804014,-0.6059514120105653
1774159863301146000,14.80414599609375,-1.0311755238622426,9.735108612355589,-0.5785568803349509
1774159863321135900,14.824135986328125,-1.0282809714645147,9.73730816822648,-0.5457404332084581
1774159863341127200,14.844127197265625,-1.0642792634975164,9.735486798018217,-0.5079401697874069
1774159863361117200,14.8641171875,-1.0952545397367328,9.73469535537958,-0.45443340133167803
1774159863381107200,14.884107177734375,-1.1184812476757913,9.734648009106516,-0.3949936626303941
1774159863401098000,14.904097900390624,-1.157200781366229,9.73210592340827,-0.34261597126983107
1774159863421088000,14.924087890625,-1.2011815235204995,9.727786306643486,-0.3126210113048553
1774159863441078300,14.944078369140625,-1.227804303638637,9.72507412507534,-0.29296054448001085
1774159863461068000,14.964068115234374,-1.236177433577925,9.724820442575215,-0.2648335338113829
1774159863481059000,14.98405908203125,-1.243927170921862,9.724579035034775,-0.23573860969236118
1774159863501049000,15.004049072265625,-1.2538229803837835,9.723782331699132,-0.2153593088073656
1774159863521039000,15.0240390625,-1.263079761289805,9.72281845510304,-0.20451456459015607
1774159863541030100,15.044030029296875,-1.2743394064508378,9.72134253733158,-0.20481316394424065
1774159863561020200,15.064020263671875,-1.2810291133478282,9.720388013085723,-0.20831118039414284
1774159863581010200,15.08401025390625,-1.281721479526162,9.720238375481962,-0.21103079635007305
1774159863601000200,15.104000244140625,-1.267626757069677,9.722034611248969,-0.2133816703251563
1774159863620991000,15.123990966796875,-1.2409415792398153,9.725457571434974,-0.2142927390217781
1774159863640981200,15.143981201171876,-1.213168606173247,9.728911511281131,-0.21659970078989862
1774159863660971300,15.16397119140625,-1.1921044830955565,9.73117244195044,-0.23141884679710492
1774159863680961000,15.1839609375,-1.1690277050212026,9.733787592884898,-0.23902155861947685
1774159863700952000,15.2039521484375,-1.1293873301587998,9.73917396209836,-0.20826703072516248
1774159863720942000,15.223942138671875,-1.0681818969592451,9.747554252430795,-0.12069966030074283
1774159863740932000,15.24393212890625,-1.0370627552699296,9.751637722352147,0.021096322013973257
1774159863760923100,15.263923095703126,-0.9926105962116271,9.754938517463208,0.1621726756840944
1774159863780913200,15.2839130859375,-0.8917571162998675,9.762830147495865,0.2496634006757289
1774159863800903200,15.303903076171874,-0.8374527677256614,9.766752873897552,0.28212703404286876
1774159863820893000,15.323892822265625,-0.8592653710830956,9.764307234311103,0.30060192607864733
1774159863840884200,15.34388427734375,-0.8778823932696134,9.761935244482755,0.3230408081082627
1774159863860874200,15.363874267578124,-0.9364771325141191,9.755329562607407,0.3563132919065654
1774159863880864300,15.3838642578125,-1.0087331712339074,9.747906719130278,0.3621208091415465
1774159863900855000,15.40385498046875,-1.0375435245241968,9.745636436110734,0.3412594420943409
1774159863920845000,15.423844970703126,-1.0328164960023014,9.74814403501749,0.27812174392426386
1774159863940835000,15.4438349609375,-1.0625688063178211,9.746959793668985,0.19522393621345982
1774159863960825000,15.4638251953125,-1.1191580509588122,9.741979667168856,0.10820183338057249
1774159863980816100,15.483816162109376,-1.160771844786033,9.73768167771399,0.02320048436912475
1774159864000806100,15.50380615234375,-1.1952552022114395,9.733473704630136,-0.03497829905221006
1774159864020796200,15.523796142578124,-1.2354988036639987,9.728204824316501,-0.07733348811455071
1774159864040786000,15.543785888671875,-1.2680011433400213,9.723633863139153,-0.11630298711122013
1774159864060777200,15.563777099609375,-1.2946768226891756,9.719565006265043,-0.15574943770356475
1774159864080767200,15.583767333984374,-1.3149576864346861,9.716101714068651,-0.1965352197414264
1774159864100757200,15.60375732421875,-1.325001672195643,9.71392144742012,-0.2334837069050409
1774159864120748000,15.623748046875,-1.3264086163841187,9.712903794810176,-0.2655759496765211
1774159864140738000,15.643738037109374,-1.3349234928816556,9.710804776704311,-0.2976820748428814
1774159864160728000,15.66372802734375,-1.3574052276723085,9.706478730198741,-0.33479287642873823
1774159864180718000,15.683718017578125,-1.3888286860704422,9.700992407742142,-0.36370522878877815
1774159864200709000,15.703709228515624,-1.4288980999998748,9.694019061598182,-0.393254892671667
1774159864220699100,15.72369921875,-1.4888288370884954,9.684275666218996,-0.4105897660931572
1774159864240689200,15.743689208984375,-1.5496126838751136,9.674887075626849,-0.4070015688754618
1774159864260679000,15.763678955078126,-1.5654830377019942,9.673295422521234,-0.3834411354700103
1774159864280670200,15.783670166015625,-1.5122300248116254,9.68331471223235,-0.34202549456339326
1774159864300660200,15.80366015625,-1.385040984225273,9.703985744339228,-0.29104210710544137
1774159864320650200,15.823650146484376,-1.2111596775036304,9.728862995964288,-0.22957864402420816
1774159864340641300,15.843641357421875,-1.0231600482542067,9.751828861010074,-0.15925306191034613
1774159864360631300,15.86363134765625,-0.983816683577001,9.75666577964723,-0.09989229759625158
1774159864380621300,15.883621337890625,-1.015440998309478,9.753818573522567,-0.047727691863942885
1774159864400611000,15.903611083984375,-1.0551366835556923,9.749700032287835,-0.020311895921302493
1774159864420602400,15.923602294921874,-1.1241800438392906,9.741983758822084,-0.018738841343234523
1774159864440592400,15.94359228515625,-1.1809689027056098,9.735207396554946,-0.037518923445732794
1774159864460582100,15.96358203125,-1.216187223342061,9.730674429300427,-0.07238152369640302
1774159864480572200,15.983572265625,-1.2444568938843905,9.726671038877964,-0.116581411326956
1774159864500563200,16.003563232421875,-1.2647979633845388,9.723500592148303,-0.1556069056940265
1774159864520553200,16.02355322265625,-1.2789794873416422,9.721189977118373,-0.18184744502892716
1774159864540543200,16.043543212890626,-1.2928810253135858,9.719023738995194,-0.19861290279831736
1774159864560534300,16.0635341796875,-1.3285450438909232,9.713736153981088,-0.22060042433124033
1774159864580524300,16.083524169921876,-1.3807277972012757,9.70543594314754,-0.261673864204064
1774159864600514000,16.10351416015625,-1.4390546062245964,9.69545873901248,-0.3123391621561721
1774159864620504000,16.123504150390627,-1.4977769904367624,9.684624625787139,-0.36755269799716767
1774159864640495400,16.143495361328124,-1.5551985211834312,9.673214758500457,-0.42505149523112923
1774159864660485400,16.1634853515625,-1.6236762834735214,9.658986326661706,-0.4879114541720599
1774159864680475100,16.18347509765625,-1.695439351044595,9.642849430853127,-0.557953250908479
1774159864700466200,16.203466064453124,-1.751309414565563,9.628665422677994,-0.6261671015653759
1774159864720456200,16.223456298828125,-1.8009880761004984,9.61498410332799,-0.6920207989621907
1774159864740446200,16.2434462890625,-1.856924628986418,9.599397242617606,-0.7574876889985054
1774159864760436200,16.263436279296876,-1.908888478849083,9.584770751371979,-0.8116173385929316
1774159864780427300,16.28342724609375,-1.943594466049224,9.57387818595767,-0.8565603499080985
1774159864800417300,16.303417236328126,-1.9689337822280824,9.565420154213905,-0.8924373536489904
1774159864820407000,16.323406982421876,-1.9883349405296147,9.558847790086269,-0.919433424058929
1774159864840397000,16.34339697265625,-1.997065213343501,9.555833410701155,-0.9317612099081277
1774159864860388400,16.363388427734375,-1.9906246589019894,9.557934766894578,-0.9239574773546307
1774159864880378400,16.38337841796875,-1.963099815377593,9.567135141438245,-0.886870586367324
1774159864900368100,16.4033681640625,-1.913872843132913,9.582862871924043,-0.8223376892454922
1774159864920359200,16.423359130859374,-1.8553562106259167,9.601132688108086,-0.739115800679475
1774159864940349200,16.44334912109375,-1.7935162789151071,9.6197386043787,-0.6436641067460179
1774159864960339200,16.463339111328125,-1.7363658201947807,9.636807812601328,-0.5360644405096769
1774159864980329200,16.4833291015625,-1.6858363870494066,9.651650576946139,-0.41711767002455885
1774159865000320300,16.5033203125,-1.629725208248943,9.665966102546452,-0.28895804910669104
1774159865020310300,16.523310302734377,-1.5655143096230923,9.679619364845752,-0.1566074610386975
1774159865040300000,16.543300048828126,-1.5505483572900294,9.68324281603992,-0.031337145521282216
1774159865060290300,16.563290283203123,-1.5959598628997802,9.675791330990196,0.04872554836145136
1774159865080281300,16.58328125,-1.6598538045309483,9.66451590373814,0.11137359528448432
1774159865100271000,16.60327099609375,-1.6857254740208387,9.659355744495988,0.15991958126137032
1774159865120261000,16.62326123046875,-1.676911614576727,9.66028396525681,0.1930872164457105
1774159865140251100,16.643251220703124,-1.6706671672292053,9.661038583016396,0.20879624223103746
1774159865160242400,16.663242431640626,-1.6766969489127397,9.660118545562028,0.20287677078787236
1774159865180232200,16.683232177734375,-1.6775949206657708,9.66017232157588,0.1927202645631507
1774159865200222200,16.70322216796875,-1.6817220835983753,9.659860771408676,0.1710895023123361
1774159865220213200,16.723213134765626,-1.7231510954432188,9.65325216692388,0.12591770547628403
1774159865240203300,16.743203369140623,-1.7724464567489921,9.644926237127184,0.06490371232875622
1774159865260193000,16.763193115234376,-1.8098288235515354,9.63819839017689,-0.00495639456891513
1774159865280183600,16.78318359375,-1.832509295784682,9.633553194719552,-0.08329183026337995
1774159865300174600,16.803174560546875,-1.8388750314243136,9.63131915205717,-0.16312338227136058
1774159865320164400,16.823164306640624,-1.8387404452592133,9.629722238254546,-0.24055890598827973
1774159865340154400,16.843154296875,-1.8393350501514971,9.627558338218927,-0.31201029552798715
1774159865360144400,16.863144287109375,-1.8273694486781953,9.6274805968076,-0.3777831097083166
1774159865380135400,16.883135498046876,-1.8007861237876117,9.630127311924099,-0.4338206022180617
1774159865400125400,16.90312548828125,-1.7704479764081538,9.633749594074487,-0.4761880639567971
1774159865420115500,16.923115478515626,-1.7406383829474448,9.637645432469249,-0.5063135549662634
1774159865440106500,16.9431064453125,-1.7025654035322366,9.643425184914468,-0.5253633060142398
1774159865460096300,16.96309619140625,-1.6553765129864215,9.65144365619719,-0.5289215464850887
1774159865480086500,16.98308642578125,-1.602838516497612,9.660962595170735,-0.5168166826715692
1774159865500076500,17.00307666015625,-1.5534994621805847,9.670124391269683,-0.4956812479233369
1774159865520067300,17.0230673828125,-1.4941798427276312,9.680878424996138,-0.4673551344860345
1774159865540057300,17.043057373046874,-1.398800191117078,9.697175479802489,-0.422531511766836
1774159865560047400,17.06304736328125,-1.2447186135604977,9.721178871202468,-0.34605350797045975
1774159865580037400,17.083037353515625,-1.0452287452645599,9.747427995702624,-0.25599086839789525
1774159865600028400,17.1030283203125,-0.9212420809160917,9.762080205911397,-0.153332531021256
1774159865620018400,17.123018310546875,-0.9140820530936121,9.763751353994012,-0.06330715928573627
1774159865640008400,17.143008544921877,-0.9668621147099882,9.758871180737017,0.002042320624209242
1774159865659998500,17.16299853515625,-1.0009409829877316,9.755401458799838,0.025230508342408572
1774159865679989500,17.182989501953124,-1.004351741279289,9.755077633672952,0.012244330508069832
1774159865699979500,17.2029794921875,-1.0210549657337367,9.753335758441686,-0.017512804396328283
1774159865719969500,17.222969482421874,-1.0278886111460626,9.75258289424777,-0.031072576300962825
1774159865739960300,17.242960205078123,-1.014607835420966,9.75399977530837,-0.020902827002177944
1774159865759950300,17.262950439453125,-1.007504798482731,9.754755562111734,-0.006563298330124235
1774159865779940400,17.2829404296875,-1.010105555565655,9.754440504813195,0.03126689101337688
1774159865799930600,17.3029306640625,-1.0152416763450949,9.753583595722914,0.08532307122950442
1774159865819921400,17.32292138671875,-1.022662766256556,9.752146840918064,0.142098075100407
1774159865839911400,17.342911376953126,-1.050552424505353,9.7483304975003,0.19175457960246128
1774159865859901400,17.3629013671875,-1.097830308508873,9.742305245861411,0.22943793864557518
1774159865879891500,17.382891357421876,-1.1466276571646332,9.736061383035779,0.254454434344545
1774159865899882500,17.402882568359374,-1.1870792753446846,9.730821728816627,0.2689163096129894
1774159865919872500,17.42287255859375,-1.2196219470310956,9.726686820968984,0.27286716613061723
1774159865939862500,17.442862548828124,-1.2502096121922135,9.722953479659557,0.2674773811173625
1774159865959852500,17.4628525390625,-1.2840936154849827,9.719043028217554,0.24835493015935642
1774159865979843300,17.48284326171875,-1.3154701660014687,9.715573306280374,0.21806498756948858
1774159865999833600,17.50283349609375,-1.343551912756264,9.71241279642284,0.18517132875462994
1774159866019823600,17.52282373046875,-1.3728358749076723,9.70884779741764,0.15486991492267696
1774159866039813600,17.542813720703126,-1.4013865543484687,9.705129653677345,0.13018842333173378
1774159866059804400,17.562804443359376,-1.4307146479025483,9.701078332459925,0.11190568373403512
1774159866079794400,17.58279443359375,-1.457267139263451,9.697264911651612,0.09909977724538184
1774159866099784400,17.602784423828126,-1.4756164504244922,9.694557406258582,0.09221672146706841
1774159866119775500,17.622775390625,-1.4811572795473038,9.693726800653337,0.09052068553837016
1774159866139765500,17.642765625,-1.4741593834839761,9.694800567364693,0.08984699666104279
1774159866159755500,17.662755615234374,-1.4593834007650612,9.697037532636523,0.08958304849523119
1774159866179745500,17.68274560546875,-1.436002232916653,9.700459908300637,0.09675571660357526
1774159866199736300,17.702736328125,-1.395109227644652,9.706174778816104,0.11927392008025199
1774159866219726600,17.7227265625,-1.336392104129493,9.713918524810671,0.1556701253896579
1774159866239716600,17.742716552734375,-1.2738538148909806,9.721382284820079,0.20594636922525242
1774159866259706600,17.76270654296875,-1.2209080413188784,9.726367672017217,0.2784686941984109
1774159866279697200,17.782697265625,-1.1781213312547654,9.729115509420632,0.35595136325899507
1774159866299687200,17.802687255859375,-1.1676636501263826,9.728776486724614,0.3973100498139858
1774159866319677200,17.82267724609375,-1.18430440380387,9.725310856440663,0.4314607777515426
1774159866339667200,17.842667236328126,-1.199966667838022,9.722420980218052,0.4527353652421385
1774159866359658000,17.862657958984375,-1.198233414304629,9.722428579002619,0.4571753935161978
1774159866379648300,17.882648193359376,-1.2019144409049303,9.722558927384018,0.4445565522985533
1774159866399638300,17.90263818359375,-1.2210880009956657,9.721370009860395,0.4174695156695321
1774159866419628000,17.9226279296875,-1.2237248523052782,9.722532623898983,0.381140128518641
1774159866439619000,17.942619140625,-1.2289831381596623,9.723366152113675,0.3408253249933943
1774159866459609000,17.962609130859374,-1.2848850581236182,9.717633161419629,0.29507309792088343
1774159866479599000,17.98259912109375,-1.3506591144129634,9.710287474831938,0.23750766519149763
1774159866499590100,18.002590087890624,-1.4023239813290536,9.704414783406257,0.16795111295506357
1774159866519580200,18.022580078125,-1.4584408592179416,9.697158528667687,0.09188170822588726
1774159866539570200,18.042570068359375,-1.5151030960299074,9.68887234635949,0.024499444988346657
1774159866559560000,18.062559814453124,-1.5610720893919467,9.68154244186282,-0.03392604548634263
1774159866579551000,18.082551025390625,-1.5917520359463988,9.67626596276462,-0.0812717500120867
1774159866599541200,18.102541259765626,-1.6056037434272468,9.673611648863554,-0.11681381357703358
1774159866619531300,18.12253125,-1.6160219693280755,9.671497433188557,-0.14491007291437125
1774159866639521000,18.14252099609375,-1.6198298371784388,9.670514267370104,-0.16640423057293519
1774159866659512000,18.162511962890626,-1.615650213406235,9.67098831462264,-0.17905248054815456
1774159866679502000,18.182502197265624,-1.6138487169422209,9.67123089120686,-0.1821412403437309
1774159866699492000,18.2024921875,-1.6194944677442311,9.670351770284771,-0.17869647018471732
1774159866719482000,18.222482177734374,-1.6391222744084895,9.667169633117318,-0.17164392132470382
1774159866739473200,18.24247314453125,-1.6599050963267683,9.663763624066114,-0.16360038866596296
1774159866759463200,18.262463134765625,-1.633945748553425,9.668239892697335,-0.16041894561825318
1774159866779453000,18.282452880859374,-1.5421569610416888,9.683204822117089,-0.1663672595634125
1774159866799443000,18.30244287109375,-1.41040616549775,9.703284902593493,-0.16556946024922653
1774159866819434200,18.322434326171877,-1.2888988238096237,9.720444711709021,-0.1485886700955685
1774159866839424300,18.34242431640625,-1.2021581134676933,9.732150931593775,-0.10229408890781924
1774159866859414000,18.3624140625,-1.1517528912238777,9.738640293613075,-0.05253003694463987
1774159866879405000,18.382405029296876,-1.1419570350050925,9.739928579857946,-0.010951370371371739
1774159866899395000,18.40239501953125,-1.15005346689485,9.738960611608624,0.019928422162204515
1774159866919385000,18.422385009765627,-1.1634455209746957,9.737329795536398,0.03463956633384805
1774159866939375000,18.442375,-1.182916748837754,9.734997553196548,0.030653275459946595
1774159866959366100,18.4623662109375,-1.1966080050598829,9.733309453979134,0.0349181480964995
1774159866979356200,18.482356201171875,-1.1896737488172948,9.734113756099342,0.045478273535915645
1774159866999346000,18.502345947265624,-1.1781677276797593,9.735471015927194,0.05394916019467637
1774159867019336000,18.5223359375,-1.17075547866188,9.73631798814535,0.06219905647994019
1774159867039327200,18.5423271484375,-1.1675247531123458,9.736628953790664,0.07283224487227853
1774159867059317000,18.56231689453125,-1.169437820192054,9.736287008485197,0.08668907148623839
1774159867079307000,18.58230712890625,-1.1790196683339773,9.73505308277607,0.09515794428442605
1774159867099297000,18.602297119140626,-1.1920974688328803,9.733489486721158,0.09214937358559108
1774159867119288300,18.622288330078124,-1.2105972943805157,9.731298698678613,0.08170824173321016
1774159867139278000,18.642278076171873,-1.2317255687355995,9.72876771889627,0.06560713875722139
1774159867159268000,18.66226806640625,-1.2557425502695143,9.725826404747366,0.04221612080165651
1774159867179258000,18.682258056640624,-1.2872592399090528,9.72179086562097,0.011516730902862036
1774159867199249200,18.702249267578125,-1.3198127252504228,9.717395845532417,-0.026359825182880738
1774159867219239000,18.722239013671874,-1.3499158948302268,9.713073890680073,-0.06576186352805234
1774159867239229200,18.742229248046876,-1.3766864128559826,9.708996265977621,-0.10246779237375594
1774159867259219200,18.76221923828125,-1.3967716078989207,9.705718851742148,-0.13584092353493907
1774159867279210200,18.782210205078126,-1.4083382731825111,9.703708680963516,-0.15814846166931093
1774159867299200300,18.8022001953125,-1.4155201475106178,9.702593413197993,-0.16238485713005066
1774159867319190300,18.822190185546877,-1.4144433120593427,9.702941203722357,-0.15059848468117415
1774159867339181300,18.842181396484374,-1.4031623318493365,9.704946698325871,-0.1247101745837368
1774159867359171000,18.862171142578124,-1.3878148328527808,9.707520348206161,-0.0916364556273911
1774159867379161000,18.8821611328125,-1.3735941459290681,9.70977777174413,-0.061954511700919826
1774159867399151400,18.9021513671875,-1.3467166603974998,9.713700498145817,-0.027898770853725725
1774159867419142100,18.92214208984375,-1.3243350249804555,9.716795541551708,0.020681069443700833
1774159867439132200,18.942132080078125,-1.3145378535874188,9.71776409432292,0.08620404618196188
1774159867459122200,18.9621220703125,-1.2898022023901343,9.720069448655844,0.16448447802411392
1774159867479112200,18.9821123046875,-1.2520599162340162,9.72324281799495,0.24759817524161187
1774159867499103200,19.002103271484376,-1.2212193722903728,9.724527012586593,0.33553642480503765
1774159867519093200,19.02209326171875,-1.2068171913199126,9.723587101387977,0.4072277057815343
1774159867539083300,19.042083251953127,-1.2075838648434727,9.721444828662277,0.4534847953699529
1774159867559073300,19.0620732421875,-1.2002219577733426,9.720767952314018,0.48633551009222864
1774159867579064000,19.08206396484375,-1.1738375164557249,9.723342771238087,0.4990939424436539
1774159867599054300,19.102054443359375,-1.1288144256416708,9.72975497636795,0.47753103953097015
1774159867619044400,19.12204443359375,-1.0743378623057156,9.737581139948963,0.4423714998770505
1774159867639034400,19.142034423828125,-1.0762615238446742,9.739054719632863,0.4035465330507606
1774159867659025200,19.162025146484375,-1.131809296608716,9.734636318668722,0.35533041834905743
1774159867679015200,19.18201513671875,-1.1703217634197325,9.732021167734265,0.29746388378124683
1774159867699005200,19.202005126953125,-1.1976525456767528,9.730694887566566,0.22270863039055838
1774159867718995500,19.221995361328126,-1.2301949981674551,9.728142280474305,0.14229270262336358
1774159867738986200,19.241986328125,-1.2607725072607396,9.72498118609488,0.07460692639460322
1774159867758976300,19.261976318359373,-1.291061554801464,9.721277070879935,0.018540989816730143
1774159867778966300,19.28196630859375,-1.3229390405774115,9.716954531505703,-0.03211146349518094
1774159867798957000,19.30195703125,-1.3511166489221156,9.712892104372381,-0.06798691916638054
1774159867818947300,19.321947265625,-1.369244572417438,9.7101933668077,-0.08781998434546404
1774159867838937300,19.341937255859374,-1.373811003550142,9.709473820361495,-0.0956489518049173
1774159867858927400,19.36192724609375,-1.3706351499930023,9.70994786761403,-0.09297364078159444
1774159867878918100,19.381918212890625,-1.3571005456373095,9.711946932476758,-0.08224622106743044
1774159867898908200,19.401908203125,-1.3349557877160607,9.715141929125785,-0.06557016318112145
1774159867918898200,19.421898193359375,-1.322603378882259,9.716964468377828,-0.04138829167538788
1774159867938888200,19.44188818359375,-1.314046855200082,9.71820950000286,-0.009056461144506466
1774159867958879200,19.461879150390626,-1.2546946486517787,9.726011113664507,0.028684984761395024
1774159867978869200,19.481869140625,-1.1685594299223274,9.73654478263855,0.06747431630201171
1774159867998859300,19.501859375,-1.047395567909628,9.750094000041484,0.09490726659214123
1774159868018849000,19.52184912109375,-0.9291219474457204,9.76179379018545,0.12040335336844436
1774159868038840300,19.54184033203125,-0.8423618748161942,9.769227155056596,0.15165597611116244
1774159868058830300,19.561830322265624,-0.7956321992799639,9.772908473917841,0.16618740948447958
1774159868078820400,19.5818203125,-0.8157669325530529,9.771370596826076,0.1588071813063696
1774159868098810000,19.60181005859375,-0.8888527000952512,9.7652991679579,0.13872216892652212
1774159868118801200,19.62180126953125,-0.9794061005931347,9.757164376819134,0.09434746815175749
1774159868138791400,19.64179150390625,-1.0679807483639567,9.748305363059043,0.019357088547653983
1774159868158781200,19.66178125,-1.13678876552172,9.740265264466405,-0.07293185105554294
1774159868178771200,19.681771240234376,-1.168574554426223,9.735720606774091,-0.1433189129990991
1774159868198762200,19.70176220703125,-1.1657145618852227,9.735689627113938,-0.1668809081739746
1774159868218752300,19.721752197265626,-1.1571261086948215,9.736734752252698,-0.16572362789763137
1774159868238742000,19.741741943359376,-1.1713536637507378,9.73533131519556,-0.1471242600988131
1774159868258732300,19.761732177734373,-1.2057999771013854,9.731447751760482,-0.12395019566244445
1774159868278723300,19.781723388671875,-1.2351162340871988,9.728210669535398,-0.08246736213797703
1774159868298712800,19.801712890625,-1.2421394107222556,9.727612119120359,-0.032127371167077215
1774159868318702600,19.82170263671875,-1.245770168440044,9.727201200231908,0.000543634005545573
1774159868338692600,19.841692626953126,-1.2429701624579728,9.727543730059265,0.01761172330971458
1774159868358684000,19.861683837890624,-1.2327253934279083,9.728795191425084,0.0359418696876266
1774159868378673700,19.881673583984377,-1.2216917390424757,9.730048990878462,0.0631785918694688
1774159868398663700,19.90166357421875,-1.2176254394516348,9.73029741268158,0.09523479064661078
1774159868418653700,19.92165380859375,-1.221726152768731,9.729542794921993,0.11738162179393694
1774159868438644700,19.941644775390625,-1.2328070803619922,9.728045834362506,0.12533267212994395
1774159868458634500,19.961634521484374,-1.2453586650297046,9.72643372299075,0.12623846186324952
1774159868478624800,19.981624755859375,-1.2622189066767693,9.724264562258124,0.12591927637886255
1774159868498615800,20.00161572265625,-1.2821326906755566,9.721583360350131,0.1316382385475561
1774159868518605800,20.021605712890626,-1.2985172776348888,9.719195588430761,0.14644391315183602
1774159868538595600,20.041595703125,-1.304852325875312,9.718007255429029,0.16755195756964383
1774159868558585600,20.061585693359376,-1.2982431368686258,9.718347447168826,0.19668513133982196
1774159868578577000,20.081576904296874,-1.2861745134122669,9.719127199369668,0.23385935355070978
1774159868598566700,20.101566650390627,-1.2978517994634806,9.716164842432736,0.286519916973263
1774159868618556700,20.121556640625,-1.3079304181464015,9.71267232414186,0.35170893991626795
1774159868638546700,20.141546630859374,-1.2844690246686339,9.713438632339239,0.41186007828991855
1774159868658537700,20.161537841796875,-1.2495511482834816,9.715926942023634,0.45800490314289927
1774159868678527700,20.18152783203125,-1.2497455018118022,9.714483172956108,0.487150771997869
1774159868698517800,20.201517822265625,-1.28457862252295,9.708919693610072,0.5070939647542313
1774159868718507800,20.2215078125,-1.2916886006586252,9.707527362468838,0.5156097910998388
1774159868738498600,20.24149853515625,-1.2432774748414754,9.713592946118116,0.5203409478075802
1774159868758488600,20.261488525390625,-1.2283864874407648,9.715615976378322,0.5179223423585295
1774159868778478600,20.281478515625,-1.2705142952047288,9.71160966334641,0.4907340007795021
1774159868798468900,20.30146875,-1.2932824457213281,9.710177584716677,0.45852918274533
1774159868818459600,20.321459716796873,-1.314348322364688,9.708839614111184,0.42579862380400296
1774159868838449700,20.34144970703125,-1.3454483940273523,9.706100544536113,0.3895592530241236
1774159868858439700,20.361439697265624,-1.363442315879464,9.704886492571234,0.3557847379878163
1774159868878429700,20.3814296875,-1.364718765556067,9.70564052580893,0.3293578092353418
1774159868898420700,20.401420654296874,-1.3578766445763408,9.707342069029808,0.30669706461597235
1774159868918410800,20.42141064453125,-1.3498105347596108,9.709121938183904,0.28524472767198455
1774159868938400800,20.44140087890625,-1.3299161861136555,9.71259750533998,0.2591447293189354
1774159868958390800,20.461390869140626,-1.302606885036081,9.717031103873252,0.23002741070501506
1774159868978381600,20.481381591796875,-1.2798664993092417,9.720736972653865,0.19896268435036762
1774159868998371600,20.50137158203125,-1.2616685793176292,9.723680040368437,0.16917786000473423
1774159869018361900,20.52136181640625,-1.2598089229255913,9.724386727333068,0.13980877685314044
1774159869038352000,20.541351806640623,-1.2797042944848536,9.72218132624328,0.10921800641948357
1774159869058342700,20.5613427734375,-1.2901045463375747,9.721074826306104,0.08201633043484761
1774159869078332700,20.581332763671874,-1.2299325478389858,9.729088036891817,0.05007898139755707
1774159869098322700,20.60132275390625,-1.097755489706993,9.744992877510189,0.02053182228229707
1774159869118313000,20.62131298828125,-0.97180344356969,9.758371414521337,0.013643994430743623
1774159869138303700,20.6413037109375,-0.8856939438033848,9.76647756408751,0.042733354175370185
1774159869158293800,20.661293701171875,-0.8408076311115175,9.770080557015538,0.09457739531695843
1774159869178283800,20.68128369140625,-0.8648458746291696,9.767458391818403,0.1384614630305674
1774159869198274600,20.701274658203126,-0.9293350787397473,9.761157245847583,0.16292891914518548
1774159869218264800,20.721264892578127,-0.9850335120208561,9.756279995200037,0.12278245792416854
1774159869238254800,20.7412548828125,-1.0400663940653205,9.75129753061235,0.02926736720963381
1774159869258244900,20.761244873046873,-1.0908979519624262,9.745703071606158,-0.039911611285526304
1774159869278235600,20.781235595703127,-1.094559762405604,9.745173494774102,-0.06276316576926037
1774159869298225400,20.801225341796876,-1.0825240913707763,9.746388131260872,-0.08048247193107382
1774159869318215700,20.821215576171873,-1.0875747258238493,9.745838096162677,-0.07869594470732845
1774159869338205700,20.841205810546874,-1.0963302061442286,9.745034963086248,-0.05234975304086692
1774159869358196500,20.861196533203124,-1.099872335730493,9.744771343713998,-0.009123888370263738
1774159869378186500,20.8811865234375,-1.1026697113640607,9.744397834226488,0.034728897718270306
1774159869398176500,20.901176513671874,-1.117892707198113,9.742501060694455,0.06616812907427083
1774159869418166300,20.921166259765624,-1.1377233429580926,9.740090492421388,0.08138172232573851
1774159869438157600,20.941157470703125,-1.1567959268923849,9.737786891654133,0.08773953952039591
1774159869458147600,20.961147705078126,-1.1771710447926074,9.735270524919033,0.09576017536073922
1774159869478137600,20.9811376953125,-1.2031397449161856,9.731949856063723,0.10954537521032616
1774159869498127400,21.00112744140625,-1.2284805954650044,9.728721541666983,0.1149210951656103
1774159869518118700,21.02111865234375,-1.2445137386381626,9.72673182915449,0.11075570084815844
1774159869538108700,21.041108642578124,-1.259941171003133,9.72483213301301,0.10289266672232188
1774159869558098400,21.061098388671876,-1.2736622378416358,9.723100779175757,0.09746427586488425
1774159869578088400,21.08108837890625,-1.3011153313040733,9.719399586570262,0.10377344987853429
1774159869598079500,21.10107958984375,-1.3315041859574615,9.714991707000136,0.12817627979172394
1774159869618069500,21.121069580078125,-1.3656054852627217,9.709701783898472,0.16492581031713635
1774159869638059500,21.1410595703125,-1.4106212695531546,9.70263549877405,0.1984542233715765
1774159869658049500,21.161049560546875,-1.4306201014868913,9.699022568973898,0.22946676288126036
1774159869678040600,21.18104052734375,-1.4132052946969866,9.700573305547238,0.26853598679220303
1774159869698030600,21.201030517578126,-1.3688506046637892,9.704787708371876,0.33725575941093267
1774159869718020400,21.221020263671875,-1.2997259227722882,9.709626965096593,0.45194048853740093
1774159869738010400,21.24101025390625,-1.2008522185008972,9.713952427080272,0.606199431954883
1774159869758001700,21.261001708984374,-1.0920359430164097,9.716531337657571,0.7528967079464346
1774159869777991400,21.280991455078127,-1.0023034304473548,9.715415485370158,0.8811786583360284
1774159869797981400,21.3009814453125,-0.9432401969082653,9.711258950212597,0.9859682355877012
1774159869817972500,21.320972412109374,-0.9397602458380162,9.704769588193297,1.0510453225888312
1774159869837962800,21.340962646484375,-0.9927878524746745,9.697202952331304,1.071930655033514
1774159869857952500,21.360952392578124,-1.0530861077014355,9.69361223436296,1.0465472805172205
1774159869877942500,21.380942626953125,-1.0729358865533023,9.699262807470559,0.9713275696862489
1774159869897933600,21.40093359375,-1.0363729463748634,9.714608845162392,0.8501183341618627
1774159869917923300,21.42092333984375,-1.0359837278615682,9.723145787361263,0.7466944192402064
1774159869937913300,21.440913330078125,-1.0750763326480983,9.725684950450063,0.6523996402569114
1774159869957903600,21.460903564453126,-1.1044382554065435,9.727884506320953,0.5646727318892255
1774159869977894700,21.480894775390624,-1.1319932018082588,9.728696991747617,0.4913381041524931
1774159869997884400,21.500884521484377,-1.179343931852281,9.725620068520307,0.4380070941224694
1774159870017874400,21.52087451171875,-1.2544665389843284,9.71759399845302,0.40630722993575036
1774159870037864400,21.540864501953124,-1.3561354999974369,9.705010995733737,0.37952180660180745
1774159870057855500,21.56085546875,-1.4622500422425566,9.690863227915763,0.3454782653657719
1774159870077845500,21.580845458984374,-1.5533213291347026,9.677899116924404,0.3096068876480684
1774159870097835500,21.60083544921875,-1.6319003603309392,9.665959088283776,0.2766490775558166
1774159870117825500,21.620825439453125,-1.691102929275483,9.656434304091334,0.25262550188433375
1774159870137816300,21.64081640625,-1.730473547285795,9.649739774888753,0.2416086342369206
1774159870157806300,21.660806396484375,-1.7578167506329714,9.644881813463568,0.23813195283599198
1774159870177796600,21.680796630859376,-1.776175852535665,9.641486325806378,0.2394300115562044
1774159870197786600,21.70078662109375,-1.7807852460272608,9.640580316877365,0.24169744503153487
1774159870217777400,21.72077734375,-1.7690619288772345,9.642827219021319,0.2380622303343378
1774159870237767400,21.740767333984376,-1.7489762954428791,9.646785016736388,0.22582911876495926
1774159870257757400,21.76075732421875,-1.7335133533731102,9.649969491991401,0.20833925571115686
1774159870277747500,21.78074755859375,-1.7079719387508927,9.654954879188537,0.18723472755784168
1774159870297739500,21.800739501953124,-1.6553633612439036,9.664555651226639,0.16279796797558665
1774159870317729500,21.8207294921875,-1.5666297235190867,9.679788291671871,0.13320650164443068
1774159870337719600,21.840719482421875,-1.4566912390716373,9.697294722267985,0.10444270917591639
1774159870357709300,21.860709228515624,-1.3630844423525035,9.71112392565608,0.08038114871475845
1774159870377700400,21.880700439453125,-1.3798647506311534,9.708874685424565,0.0640015758572612
1774159870397690400,21.9006904296875,-1.5137462745934724,9.689067576670647,0.03030063979710685
1774159870417680400,21.920680419921876,-1.5535311724931,9.682782212790846,-0.02573718378948979
1774159870437670400,21.94067041015625,-1.4799612016305326,9.694131289801001,-0.06256070199972018
1774159870457661400,21.960661376953126,-1.4649265679754315,9.696357733678818,-0.07097458864108193
1774159870477651500,21.9806513671875,-1.493586406879127,9.691965636199711,-0.07331728387628682
1774159870497641200,22.00064111328125,-1.4676266207143664,9.695941554093361,-0.07198944193916394
1774159870517632500,22.020632568359375,-1.3806756286226212,9.708777654790877,-0.06126928764942567
1774159870537622500,22.04062255859375,-1.2901098070345818,9.721340783765912,-0.039193914303113704
1774159870557612500,22.060612548828125,-1.246631169183552,9.727085464897751,-0.009780995434726355
1774159870577602300,22.080602294921874,-1.2327213017746805,9.728833185347915,0.02396431976491585
1774159870597593300,22.10059326171875,-1.2305142932496964,9.72895184329152,0.060962326892372215
1774159870617583400,22.120583251953125,-1.2394887500829994,9.727599259638787,0.08860997481252998
1774159870637573400,22.140573486328126,-1.2619108636409044,9.72458838738501,0.10168276120959781
1774159870657563400,22.1605634765625,-1.2882839067816734,9.721116911882161,0.10294804103821516
1774159870677554400,22.180554443359377,-1.319111006721854,9.71703227291703,0.09811271156994625
1774159870697544400,22.20054443359375,-1.3525823375605046,9.712476509308814,0.09325370896514505
1774159870717534200,22.2205341796875,-1.3724834082081914,9.709677233979106,0.09395367392804473
1774159870737524200,22.240524169921876,-1.3744368803635238,9.709285019791126,0.10538804546832106
1774159870757515500,22.260515625,-1.3710961916334927,9.709472066795826,0.12899374278760514
1774159870777505300,22.28050537109375,-1.3812635115131735,9.707680507203936,0.15307735981694423
1774159870797495300,22.300495361328124,-1.3696215890362857,9.709026661115884,0.17129004811942578
1774159870817485300,22.3204853515625,-1.3293785721056162,9.714034844666719,0.20164211442638189
1774159870837476600,22.3404765625,-1.270119304537773,9.720963182625175,0.24510844078511
1774159870857466400,22.36046630859375,-1.1952282411392778,9.728557875537872,0.311402685023658
1774159870877456400,22.380456298828125,-1.0834759122028945,9.737565942379831,0.41983679279014463
1774159870897446400,22.4004462890625,-0.9570021072138101,9.74512030328214,0.5358658491976559
1774159870917437400,22.4204375,-0.8582590435847639,9.747499891895055,0.6481023083891719
1774159870937427200,22.44042724609375,-0.7946767982512712,9.746438400143385,0.7387774355705827
1774159870957417500,22.46041748046875,-0.7977733760271221,9.742109431028366,0.7907172469705342
1774159870977407500,22.480407470703124,-0.8453461513239889,9.736447752004862,0.8107757732022554
1774159870997398300,22.500398193359374,-0.8570902190010994,9.737300569441913,0.7878796854570508
1774159871017388300,22.52038818359375,-0.811757843042165,9.743061617186665,0.764327837216854
1774159871037378300,22.54037841796875,-0.7737571251455694,9.748883455207944,0.728659726986289
1774159871057369300,22.560369384765625,-0.7870153967779129,9.75036346463263,0.6938374199301004
1774159871077359400,22.580359375,-0.8364787350617349,9.748203071728348,0.6657558193057775
1774159871097349400,22.600349365234376,-0.9155157391585409,9.74368530204296,0.626745193714276
1774159871117339400,22.62033935546875,-1.0155356908556072,9.736913615950941,0.5758549644324928
1774159871137330200,22.640330078125,-1.1316354013465344,9.727338562875985,0.5183118166001514
1774159871157320400,22.660320556640624,-1.247197717025131,9.71548796608448,0.4734586755255237
1774159871177310500,22.680310546875,-1.3496585590682924,9.70334803095758,0.44026228917073457
1774159871197300500,22.700300537109374,-1.4495968968965112,9.689999889084696,0.4158472116973251
1774159871217291300,22.720291259765624,-1.5431857195675371,9.67624959615171,0.3989545656180009
1774159871237281300,22.74028125,-1.619490960612893,9.664061145707965,0.39185116335358466
1774159871257271300,22.760271240234374,-1.698131804998964,9.650480948644876,0.39364133470598606
1774159871277261600,22.780261474609375,-1.7817236959211527,9.635199208360909,0.3984561876418069
1774159871297251600,22.80025146484375,-1.850713645517081,9.62210884064138,0.4003426589755341
1774159871317241600,22.82024169921875,-1.8796249749638139,9.616669279935955,0.3963209291787818
1774159871337231600,22.840231689453127,-1.8690704093322157,9.619662032011151,0.37293048204537477
1774159871357221600,22.8602216796875,-1.825743601042032,9.629743865564466,0.3241372250428423
1774159871377212400,22.88021240234375,-1.7530426680989561,9.645152447098493,0.2612468161647208
1774159871397202700,22.90020263671875,-1.6642903256736694,9.662542557838558,0.189206484288536
1774159871417192700,22.920192626953124,-1.5504853750564158,9.68281085436344,0.09762238903604448
1774159871437182700,22.9401826171875,-1.3921351802699267,9.707330963113904,-0.008076984549660118
1774159871457173500,22.960173583984375,-1.173775557135418,9.735542912119627,-0.108924439433543
1774159871477163500,22.98016357421875,-0.9567208060543984,9.75823288283348,-0.17882778668049723
1774159871497153500,23.000153564453125,-0.8355886543542146,9.768221777406334,-0.2323743391573429
1774159871517144600,23.02014453125,-0.7769984451543539,9.771563489049672,-0.28842586019244043
1774159871537134600,23.040134521484376,-0.7491083485141397,9.771969731763004,-0.3432564976630732
1774159871557124600,23.06012451171875,-0.7732806667402387,9.76810078137517,-0.39573936643116175
1774159871577114600,23.080114501953126,-0.8139600292615592,9.763076231211423,-0.43610904194880273
1774159871597105700,23.100105712890624,-0.8281768437277525,9.76062065475285,-0.46344636354446406
1774159871617095700,23.120095703125,-0.8039126094345003,9.762311092057823,-0.47052313353028147
1774159871637085700,23.140085693359374,-0.7702320197593421,9.76506068302691,-0.4697962440278381
1774159871657075700,23.16007568359375,-0.7594322471950202,9.766166598442195,-0.46435949633400886
1774159871677066500,23.18006640625,-0.7669541671324521,9.76630922178328,-0.44872733517717567
1774159871697056500,23.200056396484374,-0.7877122930008917,9.76588135176003,-0.42127789497654883
1774159871717046800,23.220046875,-0.8345307427991181,9.763733233815431,-0.3787476804241538
1774159871737036800,23.240036865234377,-0.907441007643938,9.759046537303924,-0.3285205181609839
1774159871757027600,23.260027587890626,-0.9970885453432797,9.75164999731183,-0.28549543276373296
1774159871777017600,23.280017578125,-1.0859188483756035,9.743113639634847,-0.25081194965634496
1774159871797007600,23.300007568359376,-1.1666598799113184,9.734425890788435,-0.22417441036049277
1774159871816998700,23.31999853515625,-1.2416196246318518,9.7256148078233,-0.20290775044802575
1774159871836988700,23.33998876953125,-1.307991939075291,9.717223996096848,-0.18738080323133616
1774159871856978700,23.359978759765625,-1.3692159308448433,9.708945997095107,-0.17888731658169998
1774159871876968700,23.37996875,-1.4241791086539626,9.701170686918497,-0.17142457948559894
1774159871896959500,23.39995947265625,-1.4781201038084923,9.693297761586308,-0.15980390072613954
1774159871916949800,23.41994970703125,-1.5386526061825454,9.684134796443582,-0.1430078560222406
1774159871936939800,23.439939697265626,-1.6090183741763233,9.673046416196227,-0.1167192762945313
1774159871956929800,23.4599296875,-1.6896614982955156,9.65970411954224,-0.07439550300047267
1774159871976920600,23.479920654296876,-1.7748600937619805,9.6446930128932,-0.012673135538015048
1774159871996910600,23.49991064453125,-1.8446881016172467,9.631385787552595,0.06263854844232555
1774159872016900600,23.519900634765627,-1.8853154416903852,9.622568859368561,0.14881520886044017
1774159872036890600,23.539890625,-1.9079937219664453,9.616368835684657,0.23539662785427642
1774159872056881700,23.559881591796874,-1.9077099365890025,9.614223055827617,0.3126189289456233
1774159872076871700,23.57987158203125,-1.8764980751149356,9.61852279884815,0.36490426584761587
1774159872096861700,23.59986181640625,-1.863723933737725,9.61915992770791,0.4107061224818229
1774159872116852500,23.6198525390625,-1.869917527680844,9.61561538696885,0.4622952938131988
1774159872136842800,23.6398427734375,-1.8688884768940508,9.613512861731648,0.5079484992243349
1774159872156832800,23.659832763671876,-1.8752093504786491,9.609696518313884,0.5547121866280212
1774159872176822800,23.67982275390625,-1.889944562795758,9.604075755822658,0.600204758117348
1774159872196813600,23.6998134765625,-1.8889082054853439,9.602000703114271,0.6356223276529461
1774159872216803600,23.719803466796876,-1.8424930757910012,9.60912602494955,0.663561816392839
1774159872236793600,23.739793701171877,-1.7401273646853863,9.626419105055927,0.688768299972266
1774159872256783600,23.75978369140625,-1.6083667783997952,9.64633201227188,0.7292642687506974
1774159872276774700,23.779774658203124,-1.476970056990534,9.663254505500197,0.7813136780049651
1774159872296765400,23.799765380859377,-1.3617944025419653,9.675478027257324,0.8372728811141104
1774159872316755200,23.819755126953126,-1.2747590931676327,9.683414665475487,0.881401361175999
1774159872336746500,23.83974658203125,-1.2186514945637434,9.6873812310189,0.9164563810095191
1774159872356736500,23.859736572265625,-1.186838598456606,9.689389648231863,0.9367658132623881
1774159872376726300,23.879726318359374,-1.18368678336218,9.691047936832904,0.9234970202360302
1774159872396716300,23.89971630859375,-1.222014468190819,9.691160165035724,0.8709160613883287
1774159872416707300,23.919707275390625,-1.2964996542021632,9.688702835011481,0.7864698186591267
1774159872436697300,23.939697265625,-1.393578072554618,9.683049339294433,0.6832815391242504
1774159872456687400,23.959687255859375,-1.4920761484466492,9.67535177052915,0.5758924834312871
1774159872476677400,23.979677490234376,-1.575413333955407,9.668017774379253,0.4667905228732154
1774159872496668400,23.99966845703125,-1.6233027739860117,9.664411858841776,0.3665913056191057
1774159872516658400,24.019658447265623,-1.6610053126536308,9.6605452465415,0.2920470828969031
1774159872536648200,24.039648193359376,-1.6954339442171156,9.656009941199422,0.23952468583602457
1774159872556639500,24.059639404296874,-1.7255990731172262,9.6514828191638,0.20395546940267084
1774159872576629500,24.07962939453125,-1.7653166048690676,9.644882397985457,0.17409281231416388
1774159872596619300,24.099619384765624,-1.8138737150281667,9.63643021146059,0.13951374856247567
1774159872616609300,24.119609375,-1.8651513361923395,9.627170215684174,0.09576672383253462
1774159872636600300,24.139600341796875,-1.9118207329086958,9.61837374576628,0.04703671392509713
1774159872656590300,24.15959033203125,-1.9403154443785546,9.61278162484765,0.0020360043343265713
1774159872676580400,24.179580322265625,-1.9478107685700057,9.611205169311166,-0.03438551850754302
1774159872696570400,24.1995703125,-1.9375972714610397,9.613125908240676,-0.06257552510951646
1774159872716561400,24.2195615234375,-1.9114834637783467,9.618162733364105,-0.08698216354814357
1774159872736551200,24.23955126953125,-1.8656435036234555,9.626926470056176,-0.10983759048939681
1774159872756541200,24.259541259765626,-1.7966975392997264,9.639797642067075,-0.12874903817838057
1774159872776532500,24.279532470703124,-1.7059738968014717,9.656095281395315,-0.1409514075496234
1774159872796522500,24.2995224609375,-1.5883610783338546,9.67615607264936,-0.139709152403567
1774159872816512300,24.31951220703125,-1.4509361826762557,9.697989134272932,-0.11913936131461522
1774159872836502300,24.339502197265624,-1.3027137064114211,9.71946213041246,-0.07341677132854238
1774159872856493300,24.359493408203125,-1.180841111607477,9.73529390579462,-0.007554206209504627
1774159872876483300,24.3794833984375,-1.1272506103910505,9.741489837825299,0.055277600353420706
1774159872896473300,24.399473388671876,-1.1306285623915493,9.740690796402097,0.10493959844792261
1774159872916463400,24.41946337890625,-1.129226586639136,9.740676183354854,0.120300468382705
1774159872936454400,24.439454345703126,-1.0946191644426435,9.74457962053418,0.1238958716593217
1774159872956444200,24.459444091796875,-1.063544008025527,9.747525026336312,0.15823292508237063
1774159872976434200,24.47943408203125,-1.0658291232880204,9.746983759066461,0.17517892705043778
1774159872996424400,24.499424560546874,-1.047827383455634,9.748353878375887,0.20501570077901704
1774159873016415200,24.519415283203124,-1.0161593026466667,9.750594350779055,0.25246337012518194
1774159873036405200,24.5394052734375,-0.9904980610370635,9.751478732398152,0.31299989108722653
1774159873056395300,24.559395263671874,-0.9765615248169749,9.750638774442672,0.3764782011222094
1774159873076386600,24.579386474609375,-0.9795802150510251,9.747739545869827,0.43860765383150424
1774159873096376300,24.599376220703125,-1.0011064757477492,9.743023623263836,0.49157903676889836
1774159873116366300,24.619366455078126,-1.0354925833437592,9.73725146960318,0.5329784571930766
1774159873136356400,24.6393564453125,-1.0748935964923352,9.731538352653384,0.558708745450899
1774159873156347400,24.659347412109376,-1.1139149626735598,9.726290515127777,0.5734385509405284
1774159873176337200,24.679337158203126,-1.1517889854505658,9.721161335545778,0.5854818207599223
1774159873196327400,24.699327392578127,-1.1930476091645656,9.715880764794349,0.590497310834378
1774159873216318500,24.719318359375,-1.2399888085596262,9.71050608601868,0.582159836730361
1774159873236308200,24.73930810546875,-1.2823406343378125,9.705776134887337,0.5691160480989143
1774159873256298200,24.75929833984375,-1.3158160568296908,9.701840549004077,0.559721466157399
1774159873276288300,24.779288330078124,-1.3447335237562656,9.69771265541911,0.5625211798785255
1774159873296279000,24.799279052734374,-1.3677804912142455,9.69363210810721,0.5771146456373855
1774159873316268800,24.819268798828126,-1.3857383188396692,9.690204471746087,0.5916525818167254
1774159873336258800,24.8392587890625,-1.3856709526918827,9.689112584856153,0.6094449166821315
1774159873356248800,24.859248779296873,-1.3664363831289112,9.689235334452986,0.649590866446495
1774159873376240000,24.879240234375,-1.3218529989063739,9.690341834390162,0.7213805297635495
1774159873396230000,24.89922998046875,-1.23876949589774,9.692950555583835,0.8261541057284921
1774159873416220000,24.919219970703125,-1.1284219922579823,9.694315414196252,0.9577640314970165
1774159873436211000,24.9392109375,-0.9973903778340667,9.693595867750048,1.0998998813245444
1774159873456201000,24.959200927734376,-0.8715200916960835,9.690040221095085,1.2304345060117543
1774159873476191000,24.97919091796875,-0.7607732134751976,9.684841483408212,1.339943366870284
1774159873496181000,24.999180908203126,-0.6887205883730203,9.67962170293331,1.4145577322192489
1774159873516172000,25.019172119140624,-0.6621009500600398,9.676029815921186,1.4513579152196645
1774159873536161800,25.039161865234377,-0.6552779721722006,9.675250648242235,1.4596281693063675
1774159873556151800,25.05915185546875,-0.6667585666075349,9.67673358027637,1.444522370111197
1774159873576143000,25.07914306640625,-0.6933570160020143,9.679183896037935,1.4152920378431677
1774159873596133000,25.099133056640625,-0.7263413670413196,9.68104033755958,1.3857484018422663
1774159873616123000,25.119122802734374,-0.7567500954389572,9.682947632485627,1.3558164971761404
1774159873636113000,25.13911279296875,-0.7647795265071093,9.687074941548705,1.3213923956573008
1774159873656104200,25.159104248046877,-0.7694342935103923,9.692536129564047,1.2779251559831202
1774159873676094000,25.179093994140626,-0.7811269963264464,9.697847679975629,1.229624504803121
1774159873696084000,25.199083984375,-0.7973010823402553,9.704555653181671,1.1646036049686372
1774159873716074000,25.219073974609376,-0.8355154429875313,9.710587919083236,1.0847845836486667
