time,seconds_elapsed,z,y,x
1774159848548248300,0.051248291015625,0.4861914813518524,-0.3136351406574249,0.3344626724720001
1774159848568238300,0.07123828125,0.5889074802398682,-0.2698197662830353,0.31782618165016174
1774159848588229400,0.0912294921875,0.5180191993713379,-0.4389696419239044,0.5042088031768799
1774159848608219400,0.111219482421875,0.4174845814704895,-0.44274866580963135,0.8276633024215698
1774159848628210400,0.13121044921875,0.39781954884529114,-0.2977462112903595,0.965579628944397
1774159848648200200,0.1512001953125,0.37130963802337646,-0.14001862704753876,0.9742607474327087
1774159848668191500,0.17119140625,0.434934139251709,-0.7092607617378235,0.9631378054618835
1774159848688181500,0.191181396484375,0.6979109048843384,-0.9732242226600647,0.8046882152557373
1774159848708172300,0.21117236328125,1.2618017196655273,-0.6094534993171692,0.5765847563743591
1774159848728162300,0.231162353515625,1.3774689435958862,0.13010473549365997,0.4912536144256592
1774159848748153300,0.2511533203125,0.9509083032608032,0.7018883228302002,0.35796985030174255
1774159848768143400,0.271143310546875,0.31858864426612854,0.7011663913726807,0.18560394644737244
1774159848788134400,0.291134521484375,0.33385199308395386,0.033667683601379395,-0.23092269897460938
1774159848808124400,0.31112451171875,0.6621638536453247,-0.38166186213493347,-0.413337767124176
1774159848828115500,0.331115478515625,0.9855735898017883,0.021452561020851135,-0.4512318968772888
1774159848848105500,0.35110546875,0.8934319615364075,0.1655426174402237,-0.3260348439216614
1774159848868096300,0.37109619140625,0.5951017141342163,-0.016562465578317642,-0.194357231259346
1774159848888086300,0.391086181640625,0.5911146998405457,-0.39115896821022034,0.1406141072511673
1774159848908077300,0.411077392578125,0.6066574454307556,-0.5475453734397888,0.43252211809158325
1774159848928067300,0.4310673828125,0.5725085139274597,-0.374223917722702,0.5443708896636963
1774159848948058400,0.451058349609375,0.5155339241027832,-0.15546628832817078,0.5296460390090942
1774159848968048400,0.47104833984375,0.5430966019630432,-0.12511317431926727,0.39282238483428955
1774159848988039200,0.4910390625,0.5664237141609192,-0.11660704016685486,0.1651839017868042
1774159849008029400,0.511029541015625,0.5328071713447571,-0.19506163895130157,0.05380863696336746
1774159849028020500,0.5310205078125,0.4159386157989502,-0.14303545653820038,0.12497282773256302
1774159849048010200,0.55101025390625,0.30645206570625305,-0.11333028972148895,0.1726229041814804
1774159849068001300,0.571001220703125,0.19510264694690704,-0.21415063738822937,0.13882872462272644
1774159849087991300,0.5909912109375,0.19729337096214294,-0.15081721544265747,0.1444341391324997
1774159849107982300,0.610982421875,0.19898846745491028,-0.12710228562355042,0.17416781187057495
1774159849127972400,0.630972412109375,0.08726806193590164,-0.22339420020580292,0.11724140495061874
1774159849147963400,0.65096337890625,-0.07573284208774567,-0.24654826521873474,0.035533759742975235
1774159849167953200,0.670953125,-0.1516134887933731,-0.10573921352624893,-0.0065710837952792645
1774159849187944400,0.6909443359375,-0.01930978149175644,0.12721920013427734,0.05416576564311981
1774159849207934500,0.7109345703125,0.058216966688632965,0.014277206733822823,0.09995508939027786
1774159849227925200,0.73092529296875,0.053518619388341904,-0.06785654276609421,0.112002432346344
1774159849247915300,0.750915283203125,0.18252986669540405,-0.07047709822654724,0.2037898749113083
1774159849267906300,0.77090625,0.2185773402452469,-0.3196565508842468,0.37734514474868774
1774159849287896300,0.790896240234375,0.16247865557670593,-0.5416297316551208,0.5466820001602173
1774159849307887600,0.8108876953125,0.06197948008775711,-0.2415929138660431,0.22362376749515533
1774159849327877600,0.830877685546875,0.04843730852007866,0.24701298773288727,0.13683800399303436
1774159849347868400,0.850868408203125,0.09688793122768402,0.38999515771865845,0.21347711980342865
1774159849367858400,0.8708583984375,0.18285956978797913,0.4578589200973511,0.1975540816783905
1774159849387849500,0.890849365234375,0.22703634202480316,0.13221582770347595,0.2601839005947113
1774159849407839500,0.910839599609375,0.11912985146045685,-0.21078333258628845,0.2400093972682953
1774159849427830500,0.93083056640625,0.24176310002803802,-0.09103190898895264,0.11054648458957672
1774159849447820500,0.950820556640625,0.48401007056236267,0.24867665767669678,-0.0321294404566288
1774159849467811600,0.9708115234375,0.8099000453948975,0.12694649398326874,0.04327503591775894
1774159849487801600,0.990801513671875,1.3161534070968628,-0.1784094274044037,0.3113331198692322
1774159849507792400,1.01079248046875,1.6455259323120117,-0.6442775130271912,0.398315966129303
1774159849527782400,1.030782470703125,1.6819396018981934,-0.9255214333534241,0.29247474670410156
1774159849547773400,1.0507734375,2.08876895904541,-0.1991828829050064,0.3710276186466217
1774159849567763500,1.070763427734375,2.6531713008880615,0.2326420396566391,0.12124893069267273
1774159849587754500,1.09075439453125,2.3049046993255615,0.6383088231086731,-0.4068111777305603
1774159849607744500,1.11074462890625,1.2700185775756836,-0.013333914801478386,-0.3810533285140991
1774159849627735300,1.1307353515625,1.3535335063934326,-0.3266769051551819,-0.14583949744701385
1774159849647725600,1.1507255859375,1.4672232866287231,0.04162760451436043,-0.10369496792554855
1774159849667716600,1.170716552734375,1.2315309047698975,0.09713693708181381,-0.21182437241077423
1774159849687706400,1.190706298828125,0.8277639746665955,0.4562889635562897,-0.2924070954322815
1774159849707697400,1.210697509765625,0.18650569021701813,0.4011210501194,-0.3735179305076599
1774159849727687400,1.2306875,-0.4268661141395569,0.002612560987472534,-0.44656097888946533
1774159849747678500,1.250678466796875,-0.45730018615722656,-0.4123345613479614,-0.6228103041648865
1774159849767668500,1.27066845703125,-0.1706412434577942,-1.1677356958389282,-0.9056223034858704
1774159849787659500,1.290659423828125,0.277910977602005,-1.6824136972427368,-1.2091424465179443
1774159849807649300,1.310649169921875,0.8348844647407532,-1.8423866033554077,-1.8574552536010742
1774159849827639600,1.3306396484375,1.330946922302246,-1.3770382404327393,-2.727825164794922
1774159849847630600,1.350630615234375,1.8179408311843872,-0.08858685940504074,-2.9588122367858887
1774159849867620400,1.370620361328125,2.1238296031951904,0.962439239025116,-2.277320623397827
1774159849887611400,1.390611328125,1.7150139808654785,1.3734081983566284,-1.034030556678772
1774159849907601400,1.410601318359375,0.8846909403800964,1.4486054182052612,0.012833773158490658
1774159849927592400,1.430592529296875,-0.06711965054273605,1.45826256275177,0.24178387224674225
1774159849947582500,1.45058251953125,-0.9071938395500183,1.5213874578475952,-0.11807923763990402
1774159849967573500,1.470573486328125,-0.977602481842041,2.0663418769836426,-0.7219475507736206
1774159849987563300,1.490563232421875,-0.7205706834793091,2.3570804595947266,-1.0349925756454468
1774159850007554600,1.510554443359375,-0.6428064107894897,2.0695037841796875,-0.890699565410614
1774159850027544600,1.530544677734375,-0.7064610123634338,1.4307305812835693,-0.4702996015548706
1774159850047535400,1.550535400390625,-0.6793422698974609,1.2572517395019531,-0.10418898612260818
1774159850067525400,1.570525390625,-0.5448545217514038,1.3081071376800537,-0.10115591436624527
1774159850087516700,1.5905166015625,-0.332713782787323,1.4525482654571533,-0.29745912551879883
1774159850107506400,1.61050634765625,-0.0730382576584816,1.426076889038086,-0.44457557797431946
1774159850127497500,1.63049755859375,0.02876080758869648,1.4496361017227173,-0.4689752161502838
1774159850147487500,1.650487548828125,0.028208734467625618,1.445462942123413,-0.23579734563827515
1774159850167478500,1.670478515625,0.052439771592617035,1.1216683387756348,0.23730389773845673
1774159850187468500,1.690468505859375,0.09623279422521591,0.6076012849807739,0.6653361916542053
1774159850207459300,1.710459228515625,0.5199148058891296,0.05200647562742233,0.8958389163017273
1774159850227449300,1.730449462890625,1.0105586051940918,-0.38818368315696716,1.0960662364959717
1774159850247440600,1.750440673828125,1.3585079908370972,-1.8140180110931396,1.2120347023010254
1774159850267430700,1.7704306640625,1.838581919670105,-2.510361433029175,1.0286198854446411
1774159850287420700,1.790420654296875,2.452035427093506,-2.8311867713928223,0.8514543771743774
1774159850307411700,1.81041162109375,2.5527381896972656,-3.615736961364746,0.8541212677955627
1774159850327401700,1.830401611328125,2.439274549484253,-4.799979209899902,1.4408867359161377
1774159850347392800,1.850392822265625,1.9409788846969604,-5.159904479980469,2.1314618587493896
1774159850367382800,1.8703828125,1.1205662488937378,-4.890305995941162,1.9252071380615234
1774159850387373600,1.89037353515625,0.9608945846557617,-3.4304773807525635,1.1399199962615967
1774159850407363600,1.910363525390625,1.5800905227661133,-1.214019775390625,1.0697704553604126
1774159850427355000,1.93035498046875,2.3494668006896973,-0.06813431531190872,1.3359878063201904
1774159850447345000,1.950344970703125,2.7957253456115723,-0.12703704833984375,1.8443572521209717
1774159850467335700,1.970335693359375,2.942922353744507,-0.19769896566867828,2.5224599838256836
1774159850487325700,1.99032568359375,3.2019777297973633,0.2578999996185303,2.6046552658081055
1774159850507316700,2.010316650390625,3.8632683753967285,1.401825189590454,2.4046225547790527
1774159850527306800,2.030306640625,3.9445643424987793,1.4521404504776,1.44795823097229
1774159850547297800,2.0502978515625,3.2869744300842285,0.9756980538368225,-0.6662794947624207
1774159850567287800,2.070287841796875,2.247021198272705,0.4586546719074249,-1.2465410232543945
1774159850587278600,2.090278564453125,1.4896191358566284,-1.3883583545684814,-0.7891441583633423
1774159850607268900,2.110268798828125,1.3137136697769165,-1.6001280546188354,-0.4257393181324005
1774159850627259600,2.130259765625,1.1567362546920776,-1.215885043144226,-0.3851567506790161
1774159850647249700,2.150249755859375,1.1422340869903564,-0.8614615201950073,-0.11957406997680664
1774159850667240700,2.17024072265625,1.3243952989578247,-0.631364107131958,-0.011519502848386765
1774159850687230700,2.190230712890625,1.4851837158203125,-1.1010665893554688,-0.47965529561042786
1774159850707221800,2.2102216796875,2.0355443954467773,-2.2277724742889404,-1.194716215133667
1774159850727211800,2.230211669921875,1.9570367336273193,-2.6721017360687256,-1.501300573348999
1774159850747201800,2.250201904296875,1.5600621700286865,-2.081380844116211,0.4413782060146332
1774159850767192600,2.270192626953125,0.7743756175041199,-0.5883175730705261,-0.2512892186641693
1774159850787182800,2.290182861328125,0.5819100141525269,0.015364042483270168,-0.3480362594127655
1774159850807173600,2.310173583984375,0.7429324388504028,-0.4895731508731842,-0.17042472958564758
1774159850827163600,2.33016357421875,0.9590548872947693,-1.128299593925476,-0.3022104501724243
1774159850847154700,2.35015478515625,1.4812781810760498,-1.4343290328979492,-0.6648211479187012
1774159850867144700,2.370144775390625,1.8020238876342773,-1.2611156702041626,-0.8589911460876465
1774159850887135700,2.3901357421875,1.6825002431869507,-1.6279032230377197,-0.6934586763381958
1774159850907125800,2.410125732421875,1.667015552520752,-1.338639736175537,-0.7595388889312744
1774159850927116500,2.430116455078125,2.4237184524536133,-1.9345442056655884,-0.6689085364341736
1774159850947106800,2.45010693359375,2.835627555847168,-1.631531000137329,-0.8656905889511108
1774159850967097900,2.470097900390625,2.5005059242248535,-1.716615080833435,0.14280109107494354
1774159850987087600,2.490087646484375,2.098737955093384,-0.7856013774871826,0.07760797441005707
1774159851007078700,2.51007861328125,1.796061396598816,-0.8222408890724182,-0.026265958324074745
1774159851027068700,2.530068603515625,1.630180835723877,-0.9443387985229492,-0.06569219380617142
1774159851047059700,2.550059814453125,1.5291087627410889,-0.36959215998649597,0.016401609405875206
1774159851067049700,2.5700498046875,1.2132155895233154,0.10114499181509018,0.3050621747970581
1774159851087039700,2.590039794921875,0.8855471014976501,-0.0004625910660251975,0.26377198100090027
1774159851107030500,2.610030517578125,0.6297630071640015,-0.057261690497398376,0.2717638611793518
1774159851127020800,2.630020751953125,0.4003585875034332,0.04445614665746689,0.06362904608249664
1774159851147011800,2.65001171875,0.27116039395332336,0.5288395881652832,0.05537617206573486
1774159851167001600,2.670001708984375,0.27567631006240845,0.8624500632286072,0.18375225365161896
1774159851186992600,2.68999267578125,0.3506986200809479,0.8259192109107971,0.10446329414844513
1774159851206982700,2.709982666015625,0.3241194784641266,-0.21212424337863922,-0.42925843596458435
1774159851226973700,2.7299736328125,0.5094563364982605,-0.13373009860515594,-1.237393856048584
1774159851246963700,2.749963623046875,1.1605030298233032,-0.41230207681655884,-0.8263543844223022
1774159851266955000,2.769955078125,1.4546489715576172,0.6509876251220703,-0.8744734525680542
1774159851286944800,2.78994482421875,1.4670469760894775,0.5956847071647644,-0.9873014688491821
1774159851306934800,2.809934814453125,1.264288306236267,0.7552850246429443,-0.9232534766197205
1774159851326926000,2.829926025390625,0.9204207062721252,0.5715524554252625,-0.12097915261983871
1774159851346915800,2.849915771484375,0.7650159001350403,0.8459627032279968,-0.29452991485595703
1774159851366907000,2.869906982421875,0.8286764025688171,1.1706746816635132,-0.28031235933303833
1774159851386897000,2.88989697265625,0.947871744632721,1.266856074333191,0.07469314336776733
1774159851406887700,2.9098876953125,0.4133897125720978,0.9385349750518799,0.6180917024612427
1774159851426878000,2.9298779296875,-0.3896614909172058,0.6975380778312683,0.9629647135734558
1774159851446869000,2.949868896484375,-1.0078096389770508,0.8823678493499756,1.5074626207351685
1774159851466858800,2.969858642578125,-0.6851514577865601,1.1363029479980469,1.5969831943511963
1774159851486848800,2.989848876953125,0.6145446300506592,1.2062265872955322,0.6126218438148499
1774159851506840000,3.009840087890625,2.931182622909546,1.8115657567977905,-0.1749798059463501
1774159851526830000,3.029830078125,4.5163164138793945,0.1474299281835556,-0.36462217569351196
1774159851546820900,3.04982080078125,4.489049911499023,0.26398319005966187,-1.2369762659072876
1774159851566811000,3.069810791015625,3.1436262130737305,0.6267560720443726,-1.9804033041000366
1774159851586802000,3.089802001953125,1.691450834274292,-0.13580656051635742,-1.1612902879714966
1774159851606792000,3.1097919921875,0.5879409909248352,-1.1235586404800415,-0.24846893548965454
1774159851626783000,3.129782958984375,0.39139118790626526,-1.0664199590682983,-0.34815743565559387
1774159851646772700,3.149772705078125,0.3456716537475586,-0.2394043356180191,-0.9484613537788391
1774159851666762800,3.1697626953125,0.5337046980857849,0.27413249015808105,-0.9268524646759033
1774159851686754000,3.189754150390625,0.34671613574028015,-0.43992650508880615,-0.4742802381515503
1774159851706744000,3.209744140625,0.19968940317630768,-1.9870531558990479,-0.28550630807876587
1774159851726734800,3.22973486328125,0.010660899803042412,-1.201176404953003,-0.13458257913589478
1774159851746724900,3.249724853515625,0.04060681536793709,-2.0026626586914062,-1.2051399946212769
1774159851766716000,3.2697158203125,0.2879444360733032,-0.7641501426696777,-0.8941499590873718
1774159851786706000,3.289705810546875,-0.008884038776159286,-1.0508737564086914,-0.4733699560165405
1774159851806697000,3.309697021484375,-0.2582579255104065,-1.1997932195663452,-0.06684720516204834
1774159851826687000,3.32968701171875,-0.2600017488002777,-0.4776856005191803,0.14917030930519104
1774159851846676700,3.3496767578125,0.15280365943908691,-0.04097859188914299,0.20012962818145752
1774159851866668000,3.36966796875,0.21940559148788452,0.6815209984779358,0.028001541271805763
1774159851886658000,3.389657958984375,-0.09846851974725723,1.0982226133346558,-0.20681630074977875
1774159851906648800,3.40964892578125,-0.0790649875998497,0.9387595057487488,-0.5053175091743469
1774159851926638800,3.429638916015625,-0.024345019832253456,0.971551775932312,-0.6202012300491333
1774159851946630000,3.4496298828125,-0.1834995150566101,0.4639871120452881,-0.27279236912727356
1774159851966620000,3.469619873046875,-0.4666593372821808,0.6317012906074524,-0.38345232605934143
1774159851986610000,3.48960986328125,-0.4538612365722656,0.6736825704574585,-0.39818811416625977
1774159852006601000,3.50960107421875,-0.16789738833904266,0.7117415070533752,-0.409451961517334
1774159852026590700,3.5295908203125,-0.1573110669851303,0.5558139681816101,-0.6314389705657959
1774159852046582000,3.54958203125,-0.058214038610458374,-0.056828130036592484,-0.15895849466323853
1774159852066572000,3.569572021484375,0.05522836744785309,0.0014178669080138206,0.12654995918273926
1774159852086562800,3.589562744140625,0.15782132744789124,0.168265700340271,-0.09505141526460648
1774159852106552800,3.609552734375,0.33204612135887146,-1.7821288108825684,0.6628775596618652
1774159852126542800,3.62954296875,0.29972225427627563,0.302981436252594,0.6112207770347595
1774159852146534000,3.649533935546875,0.22455987334251404,0.12473314255475998,-0.1995362788438797
1774159852166524000,3.66952392578125,0.22393669188022614,-0.26157620549201965,0.3274713456630707
1774159852186515000,3.689514892578125,0.37680453062057495,0.4843509793281555,0.0338253416121006
1774159852206504700,3.709504638671875,0.2659744322299957,-0.01907222718000412,0.060744307935237885
1774159852226496000,3.72949609375,0.390438050031662,-0.0772191509604454,0.23913082480430603
1774159852246486000,3.749486083984375,0.6594790816307068,-0.20949330925941467,0.25516146421432495
1774159852266476000,3.76947607421875,0.7228620648384094,-0.31180182099342346,0.29210856556892395
1774159852286467000,3.789467041015625,0.6618620753288269,-0.2647014260292053,0.3592372536659241
1774159852306457000,3.80945703125,0.3964959383010864,-0.3601917326450348,0.3399258852005005
1774159852326448000,3.8294482421875,0.3239210844039917,-0.3230249285697937,0.14193077385425568
1774159852346438100,3.849438232421875,0.3442356586456299,-0.03764990717172623,-0.12021855264902115
1774159852366429200,3.86942919921875,0.13890010118484497,-0.21764950454235077,-0.15240152180194855
1774159852386419000,3.8894189453125,0.8823961019515991,-1.1681509017944336,0.05349118635058403
1774159852406410200,3.90941015625,0.8836946487426758,-0.5491864085197449,0.06365673989057541
1774159852426400300,3.929400146484375,0.9738234877586365,0.06720113754272461,-0.24092712998390198
1774159852446390300,3.949390380859375,0.5023438334465027,-0.07020678371191025,-0.3324567675590515
1774159852466381000,3.969381103515625,0.4595295190811157,-0.591005265712738,-0.1201048344373703
1774159852486371000,3.98937109375,0.39566370844841003,-1.1143038272857666,0.13449496030807495
1774159852506362000,4.009362060546875,0.2123306393623352,-1.1444095373153687,-0.033240512013435364
1774159852526352100,4.02935205078125,0.08568960428237915,-1.6970431804656982,-0.03694603219628334
1774159852546342100,4.049342041015625,0.17817026376724243,-1.9187806844711304,0.03843500837683678
1774159852566333000,4.0693330078125,0.035294607281684875,-1.927391767501831,-0.015006912872195244
1774159852586323000,4.089322998046875,-0.21667957305908203,-1.957214593887329,0.22536388039588928
1774159852606314200,4.109314208984375,-0.37516242265701294,-2.219058036804199,0.6448929905891418
1774159852626304300,4.12930419921875,-0.05688272416591644,-1.7368731498718262,0.7155367732048035
1774159852646295000,4.149294921875,0.18569716811180115,-1.0928441286087036,0.7894163131713867
1774159852666285000,4.16928515625,0.3052384853363037,-0.9484502077102661,0.6352320909500122
1774159852686275300,4.189275390625,0.3536912202835083,-0.7573188543319702,0.4715949594974518
1774159852706266000,4.20926611328125,0.2175147384405136,-0.7462190389633179,0.14750050008296967
1774159852726256000,4.229256103515625,0.14366422593593597,-0.6192589998245239,0.01212963368743658
1774159852746247200,4.2492470703125,0.10216977447271347,-0.26036182045936584,-0.2941858172416687
1774159852766237000,4.26923681640625,-0.04950443655252457,0.8373550772666931,-1.0856695175170898
1774159852786228200,4.289228271484375,-0.3897421658039093,1.6967321634292603,-1.8787504434585571
1774159852806218200,4.30921826171875,-0.8989702463150024,1.3828349113464355,-2.093942165374756
1774159852826208000,4.3292080078125,-1.0063308477401733,0.6632493734359741,-1.2065805196762085
1774159852846199000,4.349198974609375,-0.7485439777374268,0.24890196323394775,-0.5864363312721252
1774159852866189300,4.369189208984375,-0.3501814603805542,-0.7850437164306641,-0.5600579977035522
1774159852886180000,4.38918017578125,-0.9987261295318604,-0.5795733332633972,-0.19691945612430573
1774159852906170000,4.409170166015625,-0.26383936405181885,-0.5025597810745239,-0.16530320048332214
1774159852926161200,4.4291611328125,0.32951319217681885,-0.1493317037820816,-0.29065659642219543
1774159852946151000,4.44915087890625,1.0134086608886719,-0.19752345979213715,-0.4292653501033783
1774159852966141200,4.46914111328125,0.8548901677131653,-0.536555826663971,-0.23186172544956207
1774159852986132200,4.48913232421875,0.4716154634952545,-1.118600606918335,-0.23944240808486938
1774159853006122200,4.509122314453125,0.3179763853549957,-1.1319979429244995,-0.42287641763687134
1774159853026113000,4.529113037109375,0.2548900842666626,-0.7122400403022766,-0.8094478249549866
1774159853046103300,4.549103271484375,-0.34276455640792847,-1.8542232513427734,-0.34478774666786194
1774159853066093300,4.56909326171875,-1.0220963954925537,-4.53460693359375,1.0463581085205078
1774159853086084000,4.589083984375,-0.2330383062362671,-2.9311304092407227,0.3862028419971466
1774159853106074000,4.60907421875,-0.145287424325943,-1.2107646465301514,0.32931530475616455
1774159853126065200,4.629065185546875,-0.2952055335044861,-0.2761003077030182,0.5404917597770691
1774159853146055200,4.64905517578125,-0.4441494941711426,0.5541700124740601,0.7728248238563538
1774159853166046200,4.669046142578125,-0.4574676752090454,0.29755231738090515,0.7156667709350586
1774159853186036200,4.6890361328125,-0.6990656852722168,-0.027593810111284256,0.6637444496154785
1774159853206026000,4.70902587890625,-0.45128196477890015,-0.18434268236160278,0.04222548380494118
1774159853226017300,4.729017333984375,0.316275417804718,-0.16644836962223053,-0.6442444920539856
1774159853246007300,4.74900732421875,0.6121496558189392,-0.4778648316860199,-0.7153722047805786
1774159853265998000,4.768998046875,-0.2254544347524643,-1.5014475584030151,-0.2722506821155548
1774159853285988000,4.788988037109375,-0.9126956462860107,-1.7174690961837769,0.3450261056423187
1774159853305979100,4.808979248046875,-0.6987945437431335,-0.6564910411834717,-0.29130294919013977
1774159853325969200,4.82896923828125,-0.5736973881721497,-0.24517540633678436,-0.20416219532489777
1774159853345959200,4.848959228515625,-0.4252373278141022,0.35766705870628357,-0.026742665097117424
1774159853365950200,4.8689501953125,-0.2818942666053772,0.5544685125350952,0.15260764956474304
1774159853385940000,4.88893994140625,-0.14003273844718933,0.934795618057251,-0.02527979016304016
1774159853405931300,4.90893115234375,-0.01750336028635502,0.7360926866531372,-0.0774652287364006
1774159853425921300,4.92892138671875,0.19045782089233398,0.0847841277718544,-0.10111463069915771
1774159853445911300,4.948911376953125,0.4139297902584076,-0.40917447209358215,0.17703469097614288
1774159853465902000,4.968902099609375,0.3412548005580902,-1.0226908922195435,1.093567967414856
1774159853485892000,4.98889208984375,0.11475614458322525,-1.7118088006973267,1.3065159320831299
1774159853505883100,5.008883056640625,0.14243996143341064,-1.0099543333053589,0.9418476819992065
1774159853525873200,5.028873046875,0.29857391119003296,0.932998538017273,-0.11782543361186981
1774159853545864200,5.0488642578125,0.032337166368961334,0.7320401072502136,-0.22805500030517578
1774159853565854000,5.06885400390625,-0.2669036090373993,0.7073185443878174,0.03231532871723175
1774159853585844000,5.088843994140625,-0.32207950949668884,0.826974093914032,0.23840777575969696
1774159853605835300,5.108835205078125,-0.049144644290208817,0.7255329489707947,0.20365191996097565
1774159853625825300,5.1288251953125,-0.24872273206710815,0.9209094047546387,0.01842295005917549
1774159853645816000,5.148816162109375,-0.4169703423976898,0.5625872015953064,-0.5501744747161865
1774159853665806000,5.16880615234375,-0.5676599740982056,-0.6303982138633728,-0.5952876210212708
1774159853685796000,5.188796142578125,0.1268700659275055,-0.8675079345703125,-0.4153077304363251
1774159853705787100,5.208787109375,0.10928414762020111,-0.29006218910217285,0.3488381505012512
1774159853725777200,5.228777099609375,0.1469561606645584,-0.5518354773521423,0.16387654840946198
1774159853745768200,5.248768310546875,-0.010518421418964863,-1.608426809310913,-0.23594222962856293
1774159853765758000,5.268758056640625,0.16048608720302582,0.08713942766189575,-0.23957717418670654
1774159853785748200,5.288748291015625,0.1878734976053238,2.1730124950408936,-1.5203078985214233
1774159853805739300,5.3087392578125,-0.37283721566200256,2.4465558528900146,-2.2643613815307617
1774159853825729000,5.32872900390625,-0.3786575496196747,0.9087528586387634,-1.4049460887908936
1774159853845720000,5.348719970703125,-0.03833647072315216,0.5014439225196838,-0.4336731433868408
1774159853865710000,5.3687099609375,0.03061996027827263,1.0756417512893677,-0.2010153979063034
1774159853885700400,5.388700439453125,-0.2632470726966858,1.2946518659591675,0.07989909499883652
1774159853905691100,5.408691162109375,-0.2113868147134781,1.1861263513565063,-0.1806161105632782
1774159853925681200,5.42868115234375,-0.22412151098251343,-0.35427364706993103,-0.8272614479064941
1774159853945672000,5.448671875,-0.22025993466377258,-0.4273878037929535,-0.7520657777786255
1774159853965662200,5.468662109375,0.015443936921656132,0.1263379603624344,-0.42733854055404663
1774159853985652200,5.48865234375,0.3161931335926056,0.15184812247753143,0.12100578099489212
1774159854005643000,5.50864306640625,0.30806514620780945,-0.7368854880332947,0.6028768420219421
1774159854025633000,5.528633056640625,0.2193179726600647,-1.6061614751815796,0.770634114742279
1774159854045624000,5.5486240234375,0.1348789930343628,-1.8895149230957031,0.8497494459152222
1774159854065614300,5.5686142578125,0.1162741482257843,-1.580939531326294,1.0357691049575806
1774159854085604000,5.58860400390625,0.12002600729465485,-1.6532336473464966,1.5200988054275513
1774159854105595100,5.60859521484375,0.5229446887969971,0.7779016494750977,-0.08363018184900284
1774159854125585200,5.628585205078125,0.22732768952846527,1.1309670209884644,-0.10429444909095764
1774159854145576200,5.648576171875,-0.009857424534857273,1.3311285972595215,0.13813576102256775
1774159854165566200,5.668566162109375,0.07825485616922379,1.7351179122924805,0.856702983379364
1774159854185557200,5.68855712890625,0.4261297285556793,1.6944082975387573,1.2995818853378296
1774159854205547000,5.708547119140625,0.21064965426921844,1.7735060453414917,1.8865628242492676
1774159854225537000,5.728537109375,-0.046905722469091415,2.3717994689941406,1.223482608795166
1774159854245528300,5.7485283203125,-0.022098110988736153,2.7509255409240723,0.9793886542320251
1774159854265518300,5.768518310546875,0.17647969722747803,2.4646987915039062,0.9805881381034851
1774159854285509400,5.78850927734375,-0.3168541193008423,2.0192084312438965,0.6734449863433838
1774159854305499400,5.80849951171875,-0.4895758330821991,0.6504691243171692,0.5659763216972351
1774159854325489400,5.828489501953125,-0.3464290499687195,-2.6012942790985107,0.2169533520936966
1774159854345480400,5.84848046875,-0.39583733677864075,-3.9860143661499023,-0.4469316899776459
1774159854365470500,5.868470458984375,-0.20448017120361328,-2.1719956398010254,-1.3379473686218262
1774159854385460500,5.88846044921875,-0.2966100871562958,-2.508756399154663,-3.2866482734680176
1774159854405451300,5.908451171875,-0.5647501945495605,-2.503080368041992,-4.931130409240723
1774159854425441500,5.928441650390625,-0.3419024646282196,-4.644136428833008,-3.7019026279449463
1774159854445432300,5.948432373046875,-0.3532952070236206,-4.077463150024414,-0.3183513581752777
1774159854465422300,5.96842236328125,0.18927058577537537,-1.9270061254501343,1.6519564390182495
1774159854485412400,5.988412353515625,-0.39347031712532043,-0.8741506338119507,0.5054213404655457
1774159854505403400,6.0084033203125,-0.6392044425010681,-0.2599863111972809,-0.38645637035369873
1774159854525393400,6.028393310546875,-0.26085424423217773,-0.3188280463218689,-0.31100448966026306
1774159854545384400,6.048384521484375,-0.01552596315741539,-0.6638528108596802,-0.020536433905363083
1774159854565374500,6.06837451171875,0.032100412994623184,-1.794796109199524,0.25595322251319885
1774159854585364200,6.0883642578125,0.01641812175512314,-1.6794335842132568,0.7448065280914307
1774159854605355500,6.10835546875,0.03417767584323883,-0.9364063143730164,1.1204299926757812
1774159854625345500,6.128345458984375,0.2996373176574707,-0.8332149386405945,1.1287120580673218
1774159854645336300,6.14833642578125,0.45306628942489624,-1.7606139183044434,0.680224597454071
1774159854665326300,6.168326416015625,0.3913629651069641,-1.2129111289978027,0.6498677730560303
1774159854685316400,6.18831640625,0.3964719772338867,0.037995584309101105,0.738426148891449
1774159854705307400,6.208307373046875,0.39502960443496704,0.8073500394821167,0.40385904908180237
1774159854725297400,6.22829736328125,0.24293461441993713,1.2953828573226929,0.1641436666250229
1774159854745288400,6.248288330078125,0.15548226237297058,1.4589661359786987,0.10838452726602554
1774159854765278500,6.268278564453125,0.08759962022304535,0.9148054122924805,-0.0732494443655014
1774159854785268200,6.288268310546875,0.08440542966127396,0.2526647448539734,0.3037511110305786
1774159854805259500,6.308259521484375,0.11691117286682129,-0.1449822187423706,0.646759033203125
1774159854825249500,6.32824951171875,0.06815055757761002,-0.5111724734306335,0.41363978385925293
1774159854845239300,6.3482392578125,-0.0014679343439638615,-0.8254520893096924,0.10306593030691147
1774159854865230300,6.368230224609375,-0.05471011623740196,-0.9378353953361511,-0.011115235276520252
1774159854885220400,6.388220458984375,-0.00410419749096036,-0.8263879418373108,0.0781419426202774
1774159854905211400,6.40821142578125,0.15403084456920624,-0.4872948229312897,0.09868369996547699
1774159854925201400,6.428201416015625,0.1970510184764862,-0.08444484323263168,-0.10800955444574356
1774159854945191400,6.44819140625,0.15771932899951935,0.2978987991809845,-0.3478762209415436
1774159854965182200,6.46818212890625,0.10146989673376083,0.2989155948162079,-0.516514241695404
1774159854985172200,6.488172119140625,-0.029865220189094543,-0.41443687677383423,-0.6768437027931213
1774159855005163500,6.50816357421875,0.07100226730108261,-1.0964303016662598,-0.2689020335674286
1774159855025153300,6.5281533203125,0.26296424865722656,-0.7739034295082092,-0.003191798459738493
1774159855045143300,6.548143310546875,0.3255802392959595,0.16166719794273376,-0.2454576939344406
1774159855065134300,6.56813427734375,0.3801686465740204,0.6427707076072693,-0.34868794679641724
1774159855085124600,6.58812451171875,0.29494747519493103,0.40884077548980713,-0.34527111053466797
1774159855105114400,6.6081142578125,0.14847974479198456,-0.2755330502986908,-0.43422815203666687
1774159855125105400,6.62810546875,0.21869665384292603,-0.8453264832496643,-0.16204003989696503
1774159855145095400,6.648095458984375,0.2908147871494293,-0.80710768699646,0.06795667856931686
1774159855165086200,6.668086181640625,0.21639887988567352,-0.21369284391403198,0.10317379236221313
1774159855185076500,6.688076416015625,-0.013336312025785446,0.05859753116965294,0.10436608642339706
1774159855205066500,6.70806640625,-0.25851836800575256,-0.15453152358531952,0.04521222040057182
1774159855225057300,6.728057373046875,-0.4982247054576874,-0.8534802794456482,0.09013389050960541
1774159855245047300,6.74804736328125,-0.560074508190155,-1.1109706163406372,0.1343572735786438
1774159855265037600,6.76803759765625,-0.4280887544155121,-1.127556324005127,0.08124159276485443
1774159855285027600,6.788027587890625,-0.21649156510829926,-0.8399453163146973,0.08053159713745117
1774159855305017600,6.808017578125,-0.19605419039726257,-0.9479939937591553,0.008020109497010708
1774159855325008600,6.828008544921875,-0.26180949807167053,-1.1373977661132812,0.034327346831560135
1774159855344998700,6.84799853515625,-0.28700539469718933,-1.0934971570968628,0.15876780450344086
1774159855364988700,6.86798876953125,-0.28321146965026855,-0.9052321314811707,0.14708931744098663
1774159855384979500,6.8879794921875,-0.20200742781162262,-0.8622434139251709,0.1179300993680954
1774159855404969700,6.9079697265625,-0.14255449175834656,-0.8849942684173584,0.13621456921100616
1774159855424960500,6.92796044921875,-0.159092977643013,-0.6381186842918396,0.11559983342885971
1774159855444950500,6.947950439453125,-0.20261861383914948,-0.4671165943145752,0.07657280564308167
1774159855464940500,6.9679404296875,-0.23482821881771088,-0.4220537841320038,0.016870858147740364
1774159855484931600,6.987931640625,-0.2238117903470993,-0.3904479146003723,0.04863251745700836
1774159855504921600,7.007921630859375,-0.2700631618499756,-0.44075900316238403,0.04188859462738037
1774159855524911600,7.02791162109375,-0.25282347202301025,-0.4149681627750397,-0.05308825150132179
1774159855544902700,7.047902587890625,-0.2949424386024475,-0.1930280476808548,-0.14982864260673523
1774159855564892400,7.067892333984375,-0.25924861431121826,-0.28651192784309387,-0.14937829971313477
1774159855584882400,7.08788232421875,-0.13441532850265503,-0.3172469437122345,-0.1364704966545105
1774159855604873700,7.107873779296875,-0.004366252571344376,-0.3682296872138977,-0.1815146654844284
1774159855624863700,7.12786376953125,0.10546570271253586,-0.37861815094947815,-0.21207045018672943
1774159855644854500,7.1478544921875,0.22060666978359222,-0.23493900895118713,-0.23344896733760834
1774159855664844500,7.167844482421875,0.23255255818367004,-0.08591970056295395,-0.38517725467681885
1774159855684834600,7.18783447265625,0.16516658663749695,0.1695472151041031,-0.33747416734695435
1774159855704825600,7.20782568359375,0.04159538075327873,0.2706000804901123,-0.311087042093277
1774159855724815600,7.227815673828125,-0.26392245292663574,0.2906893491744995,-0.04541754722595215
1774159855744805600,7.2478056640625,-0.5960689783096313,0.3956381380558014,0.00015233281010296196
1774159855764796400,7.26779638671875,-0.760013997554779,0.2210807204246521,-0.008560464717447758
1774159855784786700,7.28778662109375,-0.701300859451294,0.03946857899427414,-0.008305600844323635
1774159855804777700,7.30777783203125,-0.5267157554626465,-0.2656140923500061,-0.04910309612751007
1774159855824767500,7.327767578125,-0.3069985508918762,-0.5028759241104126,0.10071436315774918
1774159855844757500,7.347757568359375,0.12505857646465302,-0.627545952796936,0.3025153875350952
1774159855864748500,7.36774853515625,0.2144899219274521,-0.40648600459098816,0.3625430464744568
1774159855884738600,7.387738525390625,0.1598336100578308,-0.15695925056934357,0.28550922870635986
1774159855904728600,7.407728515625,0.13687795400619507,-0.07605055719614029,0.26070189476013184
1774159855924719600,7.4277197265625,0.1365882009267807,-0.013993313536047935,0.2803136706352234
1774159855944709600,7.447709716796875,0.07492057979106903,0.10331547260284424,0.25665947794914246
1774159855964699400,7.467699462890625,0.048043157905340195,0.27927982807159424,0.16542251408100128
1774159855984690700,7.487690673828125,0.09652014821767807,0.5588099956512451,0.04579731449484825
1774159856004680700,7.5076806640625,0.11445493996143341,0.7557806372642517,-0.09696915745735168
1774159856024671500,7.52767138671875,-0.05392501875758171,0.640181839466095,-0.12135306000709534
1774159856044661500,7.54766162109375,-0.1582852452993393,0.366344690322876,-0.06244926154613495
1774159856064651500,7.567651611328125,-0.15823091566562653,0.2997795343399048,-0.10968601703643799
1774159856084642600,7.587642578125,-0.14376355707645416,0.08988461643457413,-0.05690322816371918
1774159856104632600,7.607632568359375,-0.1763039231300354,0.010302438400685787,-0.018195781856775284
1774159856124622600,7.62762255859375,-0.11444428563117981,-0.018040519207715988,-0.02413969114422798
1774159856144613600,7.647613525390625,-0.046729154884815216,-0.0859985277056694,-0.10687744617462158
1774159856164603600,7.667603759765625,-0.0049343048594892025,-0.1650075912475586,-0.20204497873783112
1774159856184593700,7.68759375,0.08128873258829117,-0.2191842794418335,-0.2629123330116272
1774159856204584700,7.707584716796875,0.05995521321892738,-0.04392458125948906,-0.3577868938446045
1774159856224574500,7.727574462890625,-0.05644383281469345,-0.2532338500022888,-0.32173967361450195
1774159856244565500,7.7475654296875,-0.22368982434272766,-0.12043426930904388,-0.37030428647994995
1774159856264556000,7.76755615234375,0.034448254853487015,-0.1930573433637619,-0.3736835718154907
1774159856284545800,7.7875458984375,0.4577087163925171,-0.21641884744167328,-0.42041298747062683
1774159856304537000,7.807537109375,0.6633654832839966,-0.22452712059020996,-0.40833210945129395
1774159856324527000,7.827527099609375,0.7603915929794312,-0.3040325939655304,-0.4356697201728821
1774159856344517000,7.84751708984375,0.7676196694374084,-0.1209072470664978,-0.3213314116001129
1774159856364508000,7.8675078125,0.49943217635154724,0.23129341006278992,-0.11034674942493439
1774159856384498000,7.887497802734375,-0.1059219017624855,0.36484295129776,0.03344983607530594
1774159856404488200,7.90748828125,-0.2669358253479004,0.30041414499282837,0.1097632497549057
1774159856424479000,7.92747900390625,-0.12038233876228333,0.2568480372428894,0.1592399924993515
1774159856444469000,7.947468994140625,0.04670145735144615,0.1690358966588974,0.12252884358167648
1774159856464459000,7.967458984375,-0.04754248633980751,0.2620803415775299,0.0631355568766594
1774159856484449800,7.98744970703125,-0.312206894159317,0.38535675406455994,0.028332838788628578
1774159856504440000,8.007440185546875,-0.4814353287220001,0.39534786343574524,0.11282534897327423
1774159856524431000,8.02743115234375,-0.492501825094223,0.20311902463436127,0.2512122690677643
1774159856544420900,8.0474208984375,-0.30660200119018555,0.19023571908473969,0.24471627175807953
1774159856564411000,8.067410888671875,-0.1723584532737732,0.3059159815311432,0.15841813385486603
1774159856584402200,8.087402099609376,-0.1359218806028366,0.16477669775485992,0.0566832534968853
1774159856604392000,8.107391845703125,-0.10458659380674362,0.08527760952711105,-0.03985686972737312
1774159856624382000,8.1273818359375,-0.12730441987514496,0.04664180427789688,0.015505190007388592
1774159856644373000,8.147373046875,-0.1406860053539276,-0.06489644199609756,0.06681684404611588
1774159856664363000,8.167363037109375,-0.19633010029792786,-0.05306455120444298,0.05133562535047531
1774159856684352800,8.187352783203124,-0.2136198729276657,-0.12059831619262695,0.10286246240139008
1774159856704344000,8.207343994140626,-0.13818690180778503,-0.19525817036628723,0.182555690407753
1774159856724334000,8.227333984375,-0.13104243576526642,-0.2353462129831314,0.1959865540266037
1774159856744324000,8.247323974609374,-0.16323313117027283,-0.21881543099880219,0.18737761676311493
1774159856764315000,8.26731494140625,-0.23367241024971008,-0.28378698229789734,0.1397155523300171
1774159856784305000,8.287304931640625,-0.19921696186065674,-0.29594457149505615,0.05610135197639465
1774159856804295200,8.307295166015624,-0.1518276184797287,-0.30689096450805664,-0.00821132492274046
1774159856824286000,8.327285888671875,-0.10371654480695724,-0.2825549840927124,0.013696370646357536
1774159856844276000,8.34727587890625,-0.03874899446964264,-0.2430291622877121,-0.01974041573703289
1774159856864266000,8.367265869140626,-0.04856353998184204,-0.10113780200481415,-0.08203788101673126
1774159856884257000,8.387257080078125,-0.06969092786312103,-0.04174265265464783,-0.19165945053100586
1774159856904247000,8.4072470703125,0.06107906624674797,0.3002048432826996,-0.5112590193748474
1774159856924238000,8.427238037109374,0.01341647282242775,-0.059904612600803375,-0.35788384079933167
1774159856944227800,8.447227783203125,0.06412412226200104,-0.09404287487268448,-0.47068309783935547
1774159856964217900,8.4672177734375,0.09942539036273956,-0.1576213240623474,-0.568831741809845
1774159856984209200,8.487209228515624,0.2054080218076706,-0.19553221762180328,-0.6006749272346497
1774159857004199000,8.507198974609375,0.16564062237739563,-0.1167662963271141,-0.2869638502597809
1774159857024189000,8.52718896484375,-0.04986635968089104,0.015108911320567131,0.05806010589003563
1774159857044180000,8.547179931640626,-0.21955019235610962,-0.007616640534251928,0.22934477031230927
1774159857064170000,8.567169921875,-0.29889243841171265,0.002737463219091296,0.1412077248096466
1774159857084159700,8.58715966796875,-0.49714693427085876,-0.12036449462175369,0.01865704171359539
1774159857104151000,8.607151123046876,-0.5426944494247437,-0.36932265758514404,-0.02280997484922409
1774159857124141000,8.62714111328125,-0.12573795020580292,-0.27776557207107544,0.06309960782527924
1774159857144131000,8.647131103515624,0.13969318568706512,-0.1935846507549286,0.3237767219543457
1774159857164121900,8.667121826171876,0.2054450362920761,-0.12171817570924759,0.4497959315776825
1774159857184112000,8.687112060546875,0.14265328645706177,0.015283082611858845,0.4970550537109375
1774159857204102100,8.70710205078125,0.15463991463184357,0.15034475922584534,0.4801248013973236
1774159857224093000,8.727093017578126,0.14860652387142181,0.31941795349121094,0.35327205061912537
1774159857244083000,8.7470830078125,0.1931590735912323,0.477556437253952,0.35928893089294434
1774159857264074000,8.767073974609374,0.06620378792285919,0.7412642240524292,0.29058441519737244
1774159857284065000,8.78706494140625,0.006457632873207331,1.0520814657211304,0.1932528167963028
1774159857304055000,8.807054931640625,0.05586353316903114,0.939873993396759,0.1568242311477661
1774159857324045000,8.827045166015624,0.049193911254405975,0.7585007548332214,0.17038825154304504
1774159857344036000,8.8470361328125,-0.06853938102722168,0.8025611639022827,0.18816564977169037
1774159857364026000,8.867026123046875,-0.1311950385570526,0.8732491731643677,0.2174750715494156
1774159857384016100,8.88701611328125,-0.17057813704013824,0.9313982129096985,0.15849456191062927
1774159857404007000,8.9070068359375,-0.10023445636034012,1.0614582300186157,0.09473849087953568
1774159857423997000,8.926996826171875,0.025193503126502037,0.9249741435050964,0.005562012083828449
1774159857443987000,8.946987060546874,0.09717927873134613,0.6757528781890869,-0.025782328099012375
1774159857463978000,8.96697802734375,0.13943113386631012,0.6551355123519897,0.008599081076681614
1774159857483968000,8.986968017578125,0.13060781359672546,0.031854867935180664,0.07683859020471573
1774159857503958000,9.0069580078125,0.11369620263576508,-0.3103269636631012,0.07578025013208389
1774159857523948800,9.02694873046875,0.10783432424068451,-0.5343225002288818,-0.010183927603065968
1774159857543939000,9.04693896484375,0.0966074988245964,-0.611555278301239,-0.047566454857587814
1774159857563929000,9.06692919921875,0.19564619660377502,-0.2574075758457184,-0.09315817058086395
1774159857583920000,9.086920166015625,0.43887510895729065,0.10782047361135483,-0.3269496262073517
1774159857603910000,9.106909912109375,0.62395840883255,0.321018248796463,-0.3808823525905609
1774159857623900000,9.12689990234375,0.7324345707893372,0.3081658184528351,-0.31257787346839905
1774159857643891200,9.14689111328125,0.6838534474372864,0.24651789665222168,-0.1989719569683075
1774159857663881000,9.166880859375,0.5555489659309387,0.1115395799279213,-0.14615507423877716
1774159857683872000,9.1868720703125,0.427162766456604,0.3487699627876282,-0.18340525031089783
1774159857703862000,9.206862060546875,0.219633549451828,0.5960564613342285,-0.16034066677093506
1774159857723852000,9.22685205078125,0.13861887156963348,0.5724712610244751,-0.034626953303813934
1774159857743843000,9.246843017578126,0.10668090730905533,0.33297502994537354,0.3047551214694977
1774159857763833000,9.2668330078125,0.02943591959774494,-0.02299639582633972,0.49936428666114807
1774159857783823000,9.286822998046874,-0.15032851696014404,0.21820689737796783,0.3729836940765381
1774159857803814000,9.30681396484375,-0.27256548404693604,0.7295687198638916,0.2819978594779968
1774159857823804000,9.326803955078125,-0.3625563681125641,0.7968817353248596,0.1567925363779068
1774159857843794200,9.346794189453124,-0.30555006861686707,0.2881990373134613,0.043655067682266235
1774159857863785000,9.366784912109376,-0.24388962984085083,-0.04204598814249039,0.10004351288080215
1774159857883775000,9.38677490234375,-0.14237871766090393,0.1302133947610855,0.10647610574960709
1774159857903765000,9.406764892578124,-0.060074787586927414,0.1607060581445694,0.06401067227125168
1774159857923756000,9.426756103515626,-0.0739796832203865,0.09469641745090485,0.05599695444107056
1774159857943746000,9.44674609375,-0.15788763761520386,0.05832589045166969,0.08142348378896713
1774159857963736000,9.466736083984374,-0.1877477914094925,-0.009404953569173813,0.11140748113393784
1774159857983727000,9.48672705078125,-0.17184552550315857,-0.10668063908815384,0.1602514535188675
1774159858003716900,9.506716796875,-0.15629400312900543,-0.2530445158481598,0.22488078474998474
1774159858023707000,9.526706787109376,-0.2295580953359604,-0.4430330991744995,0.3146578073501587
1774159858043698200,9.5466982421875,-0.19117102026939392,-0.373738169670105,0.2555984854698181
1774159858063688000,9.56668798828125,-0.17373211681842804,-0.041726406663656235,0.05607445538043976
1774159858083678000,9.586677978515626,-0.19772905111312866,-0.12198928743600845,0.027565848082304
1774159858103669000,9.6066689453125,-0.20238105952739716,-0.23224228620529175,0.029469208791851997
1774159858123659000,9.626658935546875,-0.19874265789985657,-0.35590803623199463,0.05745051056146622
1774159858143649000,9.64664892578125,-0.14188043773174286,-0.3695162534713745,0.02358095906674862
1774159858163640000,9.66664013671875,-0.054132476449012756,-0.23370996117591858,-0.1118817925453186
1774159858183630000,9.686630126953125,-0.006984672509133816,-0.2892882823944092,-0.1531597226858139
1774159858203619800,9.706619873046876,-0.017057547345757484,-0.5084038376808167,-0.13065548241138458
1774159858223611100,9.726611083984375,-0.0007771103992126882,-0.47860652208328247,-0.31371158361434937
1774159858243601200,9.74660107421875,0.0004444815858732909,-0.48449957370758057,-0.3750609755516052
1774159858263591200,9.766591064453126,-0.10935737937688828,-0.3625188171863556,-0.24809768795967102
1774159858283580400,9.786580322265625,-0.14193929731845856,-0.2923746109008789,0.14405997097492218
1774159858303570200,9.806570068359376,-0.1297111213207245,-0.25441789627075195,0.5135070085525513
1774159858323560200,9.826560302734375,-0.046479083597660065,-0.15852759778499603,0.4197671711444855
1774159858343550500,9.846550537109374,-0.006176669616252184,-0.13585875928401947,0.2736041247844696
1774159858363541200,9.866541259765626,0.07961200177669525,-0.47182586789131165,0.3310506343841553
1774159858383531300,9.88653125,0.23463061451911926,-0.8624356985092163,0.3544504940509796
1774159858403521300,9.906521240234374,0.25507649779319763,-0.9687495827674866,0.2549254894256592
1774159858423512600,9.9265126953125,0.1364973932504654,-0.8500810265541077,0.13625450432300568
1774159858443502300,9.94650244140625,0.08814637362957001,-0.539753794670105,0.09109129756689072
1774159858463492400,9.966492431640624,0.10288403928279877,-0.28575557470321655,0.062427159398794174
1774159858483483400,9.9864833984375,0.1508435755968094,-0.19639773666858673,0.07679811120033264
1774159858503473400,10.006473388671875,0.17851994931697845,-0.1092604473233223,0.07833874970674515
1774159858523463200,10.026463134765624,0.21991266310214996,-0.10705241560935974,0.14069852232933044
1774159858543454500,10.046454345703125,0.21358126401901245,-0.019694076851010323,0.13049116730690002
1774159858563444500,10.066444580078125,0.22718921303749084,0.06672683358192444,0.06325886398553848
1774159858583434200,10.086434326171876,0.2204602062702179,0.1364039182662964,0.05337267741560936
1774159858603425300,10.10642529296875,0.17585358023643494,0.20992021262645721,0.04555017501115799
1774159858623415300,10.126415283203125,-0.06481148302555084,0.11362989246845245,0.08021920174360275
1774159858643405300,10.1464052734375,-0.20306363701820374,0.15185530483722687,0.10807746648788452
1774159858663396400,10.166396240234375,-0.29249924421310425,0.22723448276519775,0.07790811359882355
1774159858683386400,10.186386474609375,-0.3784636855125427,0.15935903787612915,0.04483937844634056
1774159858703376400,10.20637646484375,-0.2733950614929199,0.06167960911989212,0.12678617238998413
1774159858723367400,10.226367431640625,0.10939386487007141,-0.5082070231437683,0.33946460485458374
1774159858743357400,10.246357421875,0.1618562787771225,-0.9017109274864197,0.42717742919921875
1774159858763347500,10.266347412109376,0.19945372641086578,-1.085189938545227,0.3096182942390442
1774159858783338200,10.286338134765625,0.19569972157478333,-0.622554361820221,0.015260978601872921
1774159858803328300,10.306328369140624,0.291922390460968,-0.08630505949258804,-0.20440267026424408
1774159858823318300,10.326318359375,0.4629460871219635,0.6116764545440674,-0.3402955234050751
1774159858843309300,10.346309326171875,0.7189323306083679,-1.4903957843780518,-0.15956942737102509
1774159858863299300,10.36629931640625,0.851178765296936,-1.1689623594284058,0.04649266600608826
1774159858883289300,10.386289306640625,0.8648285269737244,-0.012792760506272316,-0.257517009973526
1774159858903280400,10.4062802734375,0.7171293497085571,0.8618713617324829,-0.36684778332710266
1774159858923270400,10.4262705078125,0.4446520209312439,0.5611229538917542,-0.15475068986415863
1774159858943260400,10.446260498046875,0.25776389241218567,0.726471483707428,-0.04204172641038895
1774159858963251500,10.46625146484375,0.15080469846725464,1.015836477279663,-0.04856700450181961
1774159858983241200,10.4862412109375,0.0864720419049263,0.9388431310653687,-0.08303496241569519
1774159859003231200,10.506231201171875,-0.010838000103831291,1.0782870054244995,-0.0379287414252758
1774159859023222500,10.526222412109375,-0.1732167899608612,0.8600063323974609,0.06695133447647095
1774159859043212300,10.54621240234375,-0.3291803002357483,0.2892017066478729,0.1767958104610443
1774159859063202300,10.566202392578125,-0.3316410481929779,0.4305838644504547,0.21131543815135956
1774159859083193300,10.586193359375,-0.3268633484840393,0.4337245523929596,0.21649928390979767
1774159859103183400,10.606183349609376,-0.2687845826148987,0.17493878304958344,0.1913723647594452
1774159859123173000,10.626173095703125,-0.23162603378295898,0.005947371479123831,0.14404772222042084
1774159859143163400,10.646163330078124,-0.22466932237148285,-0.03424771875143051,0.11456599086523056
1774159859163154400,10.666154541015626,-0.2206820398569107,0.1559736132621765,0.08667550981044769
1774159859183144400,10.68614453125,-0.2231108397245407,0.23077648878097534,0.09029953926801682
1774159859203134200,10.70613427734375,-0.21921411156654358,0.21791182458400726,0.1319950520992279
1774159859223125500,10.72612548828125,-0.2013203352689743,0.042817503213882446,0.17635107040405273
1774159859243115500,10.746115478515625,-0.1477218121290207,-0.2733955979347229,0.20331557095050812
1774159859263105300,10.766105224609374,-0.07033088803291321,-0.470229834318161,0.16027995944023132
1774159859283098600,10.7860986328125,-0.01492542028427124,-0.47366875410079956,0.09866612404584885
1774159859303088600,10.806088623046875,-0.0024684839881956577,-0.4513418972492218,0.05979941785335541
1774159859323078700,10.82607861328125,0.015498798340559006,-0.43218177556991577,0.043726708739995956
1774159859343069400,10.8460693359375,0.06432173401117325,-0.46066826581954956,0.01116450410336256
1774159859363059500,10.8660595703125,0.10135192424058914,-0.4665085971355438,-0.04139218106865883
1774159859383049500,10.886049560546875,0.09604077786207199,-0.5037446618080139,-0.029878536239266396
1774159859403040800,10.906040771484374,0.049552638083696365,-0.4740069806575775,-0.014654310420155525
1774159859423030500,10.926030517578125,0.037526071071624756,-0.3307507634162903,-0.09278453141450882
1774159859443020500,10.9460205078125,0.05282299965620041,-0.43549206852912903,-0.21832993626594543
1774159859463011600,10.966011474609376,0.05439666286110878,-0.7017839550971985,-0.3367098569869995
1774159859483001600,10.986001708984375,0.04921787977218628,-0.8828818202018738,-0.31560856103897095
1774159859502991600,11.00599169921875,0.1409272998571396,-0.8660093545913696,-0.3495481610298157
1774159859522982700,11.025982666015626,0.29729291796684265,-0.8986586928367615,-0.2096634805202484
1774159859542972700,11.04597265625,0.34175121784210205,-0.8511159420013428,-0.1515360027551651
1774159859562962400,11.06596240234375,0.18110400438308716,-0.9969871044158936,0.08262857049703598
1774159859582952400,11.085952392578125,-0.049458097666502,-1.3047665357589722,0.36716946959495544
1774159859602943700,11.10594384765625,-0.24655331671237946,-1.3463743925094604,0.3497830331325531
1774159859622933500,11.12593359375,-0.4372873306274414,-1.0097681283950806,0.2671467363834381
1774159859642923500,11.145923583984375,-0.5492916107177734,-1.110228180885315,0.3006519675254822
1774159859662914600,11.16591455078125,-0.49195510149002075,-1.282828450202942,0.30909979343414307
1774159859682904600,11.185904541015624,-0.37714648246765137,-0.9848534464836121,0.26148858666419983
1774159859702894600,11.20589453125,-0.10468965768814087,-0.36409991979599,0.18713127076625824
1774159859722885600,11.2258857421875,0.03373665735125542,-0.2069430649280548,0.17288894951343536
1774159859742875600,11.245875732421876,0.07392695546150208,0.0010615360224619508,0.15321911871433258
1774159859762865700,11.26586572265625,0.025253158062696457,0.3806043267250061,-0.0010775149567052722
1774159859782856700,11.285856689453125,-0.059305135160684586,0.5493520498275757,-0.23259782791137695
1774159859802846700,11.3058466796875,-0.1733398288488388,0.32877734303474426,-0.024643560871481895
1774159859822836700,11.325836669921875,-0.22741451859474182,0.19749149680137634,0.026973294094204903
1774159859842826500,11.345826416015624,-0.21120785176753998,0.07112317532300949,0.09623465687036514
1774159859862817500,11.365817626953126,-0.1290072500705719,0.2868078052997589,0.06372944265604019
1774159859882807600,11.3858076171875,-0.0543319471180439,0.4893539845943451,0.06652230024337769
1774159859902797800,11.4057978515625,-0.001532382913865149,0.48389238119125366,0.06486102193593979
1774159859922788600,11.42578857421875,0.013650298118591309,0.420023113489151,0.02267521806061268
1774159859942778600,11.445778564453125,-0.013918478973209858,0.41431915760040283,-0.008784436620771885
1774159859962768600,11.4657685546875,-0.05149514973163605,0.33951762318611145,0.046013299375772476
1774159859982759700,11.485759765625,0.02785320207476616,0.3815561532974243,-0.004020308144390583
1774159860002749700,11.505749755859375,0.09197919070720673,0.25103995203971863,0.02684306539595127
1774159860022739700,11.52573974609375,0.08552209287881851,0.16240514814853668,0.08509065955877304
1774159860042730500,11.54573046875,0.07218871265649796,-0.09256455302238464,0.11554604023694992
1774159860062720500,11.565720458984375,0.1324951946735382,-0.22095288336277008,0.039560992270708084
1774159860082710500,11.58571044921875,0.13956987857818604,0.03412068635225296,-0.16862469911575317
1774159860102701600,11.60570166015625,0.1440277397632599,0.4171365201473236,-0.29428035020828247
1774159860122691600,11.625691650390625,0.26693156361579895,0.14657746255397797,-0.29661887884140015
1774159860142681600,11.645681640625,0.3755112886428833,-0.010441189631819725,-0.30027514696121216
1774159860162671600,11.665671630859375,0.5354974865913391,-0.051656801253557205,0.10971131920814514
1774159860182662400,11.685662353515625,0.5112376809120178,-0.2831214666366577,0.14418593049049377
1774159860202652700,11.705652587890626,0.35958826541900635,0.1767188459634781,-0.008696552366018295
1774159860222642700,11.725642578125,0.18686895072460175,0.7439990639686584,-0.18591713905334473
1774159860242633500,11.745633544921875,0.07265476137399673,1.1366666555404663,-0.3197028934955597
1774159860262623500,11.76562353515625,0.05759991332888603,1.4610199928283691,-0.3939973711967468
1774159860282611200,11.785611083984374,0.08314654976129532,1.7191873788833618,-0.22422324120998383
1774159860302602200,11.805602294921876,0.13652534782886505,1.6203745603561401,0.04049895703792572
1774159860322592300,11.82559228515625,0.0923491045832634,1.11029851436615,0.06654440611600876
1774159860342582300,11.845582275390624,-0.1098596528172493,0.6624882221221924,0.04698721691966057
1774159860362572300,11.865572265625,-0.22439821064472198,0.7587420344352722,0.1607353538274765
1774159860382563000,11.88556298828125,-0.26325854659080505,0.8056735992431641,0.1719491183757782
1774159860402553300,11.90555322265625,-0.21768918633460999,0.6145113706588745,0.16183364391326904
1774159860422543400,11.92554345703125,-0.18268193304538727,0.37635764479637146,0.3129903972148895
1774159860442534100,11.9455341796875,-0.202743262052536,0.32323557138442993,0.41696712374687195
1774159860462524200,11.965524169921874,-0.2379624992609024,0.29643937945365906,0.4333786070346832
1774159860482514200,11.98551416015625,-0.27252233028411865,0.20620989799499512,0.3598484396934509
1774159860502505200,12.005505126953125,-0.2852240204811096,0.12744078040122986,0.27364298701286316
1774159860522495200,12.0254951171875,-0.2677856385707855,-0.09441118687391281,0.22896234691143036
1774159860542485200,12.0454853515625,-0.20719392597675323,-0.2712288498878479,0.12218822538852692
1774159860562476000,12.06547607421875,-0.14984995126724243,-0.22556202113628387,0.05349571630358696
1774159860582466000,12.085466064453126,-0.09506180137395859,-0.37501993775367737,0.017621871083974838
1774159860602456300,12.105456298828125,-0.02274179831147194,-0.5582443475723267,0.017061274498701096
1774159860622446300,12.1254462890625,-0.053166814148426056,-0.4816092550754547,0.08307784050703049
1774159860642437000,12.14543701171875,-0.14207005500793457,-0.3656781017780304,0.07733047753572464
1774159860662427100,12.16542724609375,-0.16240595281124115,-0.14146818220615387,-0.026615366339683533
1774159860682417200,12.185417236328124,-0.06221463903784752,-0.06430122256278992,-0.16103336215019226
1774159860702408200,12.205408203125,0.1217767670750618,-0.5365888476371765,-0.43407341837882996
1774159860722398200,12.225398193359375,0.30711865425109863,-0.42265644669532776,-0.3840278387069702
1774159860742388200,12.24538818359375,0.1144871637225151,0.46826866269111633,-0.20050619542598724
1774159860762379300,12.265379150390626,-0.026194052770733833,0.27051296830177307,0.19659721851348877
1774159860782369000,12.285369140625,0.00586721021682024,-0.4949450194835663,0.4159468710422516
1774159860802359000,12.305359130859374,0.11267541348934174,-0.7561100721359253,0.3374882936477661
1774159860822349300,12.325349365234375,0.09004627168178558,-0.552690863609314,0.24472852051258087
1774159860842340400,12.34534033203125,-0.016089221462607384,-0.5734733939170837,0.2758805751800537
1774159860862330000,12.365330078125,-0.006983341183513403,-0.6646105051040649,0.40828922390937805
1774159860882320100,12.385320068359375,0.04302017018198967,-0.7954593300819397,0.5257971882820129
1774159860902311400,12.4053115234375,0.18714885413646698,-0.5387681126594543,0.3996179699897766
1774159860922301200,12.42530126953125,0.370781809091568,-0.18202972412109375,0.16819806396961212
1774159860942291200,12.445291259765625,0.2954137921333313,-0.19140058755874634,0.05029592663049698
1774159860962282200,12.4652822265625,0.21194607019424438,-0.27493223547935486,0.014200774021446705
1774159860982272300,12.485272216796876,0.16493648290634155,-0.22436918318271637,0.021435517817735672
1774159861002262000,12.505261962890625,0.11999058723449707,-0.2529768645763397,-0.012151471339166164
1774159861022252300,12.525252197265624,0.09429188072681427,-0.29706868529319763,0.07523110508918762
1774159861042243300,12.545243408203126,0.10684282332658768,-0.41279929876327515,0.14111851155757904
1774159861062233000,12.565233154296875,0.1516537070274353,-0.2930028438568115,0.16492822766304016
1774159861082223000,12.58522314453125,0.17983128130435944,-0.20969010889530182,0.1626882553100586
1774159861102214400,12.60521435546875,0.10567370057106018,-0.07738906145095825,0.013422065414488316
1774159861122204400,12.625204345703125,0.07748173922300339,-0.03224262595176697,0.05055638402700424
1774159861142194200,12.645194091796874,0.09269318729639053,0.13808196783065796,0.08618628233671188
1774159861162185200,12.665185302734375,-0.042986880987882614,0.10677331686019897,0.06704001873731613
1774159861182175200,12.68517529296875,0.039438486099243164,0.101559117436409,0.08560678362846375
1774159861202165200,12.705165283203126,0.1297105848789215,0.07390591502189636,-0.027052123099565506
1774159861222155300,12.7251552734375,0.21294716000556946,-0.05552291497588158,-0.05071723833680153
1774159861242146300,12.745146240234375,0.1726740300655365,0.03621792420744896,0.06514837592840195
1774159861262136300,12.76513623046875,0.10342173278331757,0.005342034623026848,0.04168805852532387
1774159861282127600,12.785127685546875,0.06557341665029526,-0.0012397015234455466,-0.09927066415548325
1774159861302118700,12.80511865234375,0.20460374653339386,0.02592667192220688,-0.30602943897247314
1774159861322108400,12.8251083984375,0.43618717789649963,0.06411667168140411,-0.3688664436340332
1774159861342098400,12.845098388671875,0.6178839802742004,0.30713438987731934,-0.3365876078605652
1774159861362088400,12.86508837890625,0.5493249297142029,0.5556706786155701,-0.16501106321811676
1774159861382079500,12.88507958984375,0.3434564173221588,0.5556358098983765,-0.33499130606651306
1774159861402069500,12.905069580078125,0.19680973887443542,0.8315920233726501,-0.23782667517662048
1774159861422059500,12.9250595703125,0.21307019889354706,0.8665023446083069,-0.24723562598228455
1774159861442050600,12.945050537109376,0.1158917173743248,0.9645753502845764,-0.1982494443655014
1774159861462040300,12.965040283203125,-0.042690739035606384,1.1541775465011597,-0.01613369584083557
1774159861482030600,12.985030517578124,-0.03610048070549965,1.218106985092163,0.012353605590760708
1774159861502021600,13.005021728515626,-0.20987653732299805,1.005627155303955,-0.01799098402261734
1774159861522011400,13.025011474609375,-0.4420519769191742,0.9648723006248474,0.05808034539222717
1774159861542001400,13.04500146484375,-0.5428944230079651,0.932781457901001,0.200651615858078
1774159861561991400,13.064991455078125,-0.5324000120162964,0.6683163046836853,0.2657725512981415
1774159861581982700,13.084982666015625,-0.48639973998069763,0.3847615122795105,0.19236251711845398
1774159861601972500,13.104972412109374,-0.43425583839416504,0.19415776431560516,0.09727488458156586
1774159861621962500,13.12496240234375,-0.40338101983070374,0.250037282705307,0.007979895919561386
1774159861641953500,13.14495361328125,-0.38383209705352783,0.5005776286125183,-0.07891105860471725
1774159861661943600,13.164943603515624,-0.3749304711818695,0.47148337960243225,-0.031867384910583496
1774159861681933300,13.184933349609375,-0.3321686089038849,0.18212878704071045,0.07728200405836105
1774159861701923600,13.204923583984375,-0.28619927167892456,-0.022702116519212723,0.09834308177232742
1774159861721914600,13.22491455078125,-0.23178476095199585,-0.028023645281791687,-0.005185441114008427
1774159861741904400,13.244904296875,-0.15083424746990204,-0.05354178696870804,-0.10818719118833542
1774159861761894400,13.264894287109374,-0.06306552141904831,-0.16498948633670807,-0.20616622269153595
1774159861781885700,13.2848857421875,0.0409194715321064,-0.2458806037902832,-0.18059374392032623
1774159861801875700,13.304875732421875,0.10822154581546783,-0.36865925788879395,-0.08992935717105865
1774159861821865500,13.324865478515624,0.08345042169094086,-0.3822810649871826,0.0857364758849144
1774159861841855500,13.34485546875,0.032534774392843246,-0.03670182079076767,0.056602559983730316
1774159861861846500,13.364846435546875,0.21920745074748993,-0.1819857805967331,-0.15301059186458588
1774159861881836300,13.384836181640624,0.40339165925979614,-0.30835676193237305,-0.3091176450252533
1774159861901826600,13.40482666015625,0.4611987769603729,-0.3376496732234955,-0.46976935863494873
1774159861921817600,13.424817626953125,0.4459202289581299,-0.29728254675865173,-0.22772210836410522
1774159861941807600,13.4448076171875,0.30020296573638916,-0.07094927132129669,0.04237355664372444
1774159861961797400,13.46479736328125,0.26428890228271484,-0.2418496459722519,0.11352097243070602
1774159861981787400,13.484787353515625,0.18327422440052032,-0.5386855602264404,-0.004221909213811159
1774159862001778700,13.50477880859375,0.02852671593427658,-0.5953270196914673,-0.10731153935194016
1774159862021768400,13.5247685546875,0.007003581151366234,-0.5245702862739563,-0.060135774314403534
1774159862041758500,13.544758544921875,-0.01889965496957302,-0.5512785911560059,0.08607416599988937
1774159862061749500,13.56474951171875,-0.06864670664072037,-0.5136023163795471,0.0719841793179512
1774159862081739500,13.584739501953125,0.022970296442508698,-0.6691916584968567,0.09086465835571289
1774159862101729300,13.604729248046874,0.09219890087842941,-0.7076293230056763,0.17513400316238403
1774159862121719600,13.624719482421876,0.12832441926002502,-0.5075910687446594,0.12843067944049835
1774159862141710600,13.644710693359375,0.1297883540391922,-0.2911892235279083,0.10767532885074615
1774159862161700600,13.66470068359375,0.17565543949604034,-0.26687589287757874,0.13711178302764893
1774159862181690400,13.6846904296875,0.1574772447347641,-0.33400726318359375,0.24105016887187958
1774159862201681700,13.704681640625,0.07909588515758514,-0.21989162266254425,0.2732219398021698
1774159862221671700,13.724671630859374,-0.0161864273250103,-0.24563319981098175,0.16194495558738708
1774159862241661400,13.744661376953125,-0.06521229445934296,-0.47132039070129395,0.14752261340618134
1774159862261651500,13.7646513671875,-0.08442992717027664,-0.2226216197013855,0.17991596460342407
1774159862281641500,13.784641357421876,-0.1036054864525795,-0.11864276230335236,0.18688653409481049
1774159862301631500,13.804631591796875,-0.0832032784819603,-0.007661648094654083,0.21533708274364471
1774159862321621500,13.82462158203125,-0.046653520315885544,-0.04530249908566475,0.2141498476266861
1774159862341612300,13.8446123046875,-0.0057098171673715115,0.05136731639504433,0.15416693687438965
1774159862361602300,13.864602294921875,0.04262016341090202,0.12742000818252563,0.1049804762005806
1774159862381592300,13.88459228515625,0.09714199602603912,0.2074780911207199,0.07402282953262329
1774159862401582600,13.90458251953125,0.14076004922389984,0.21008798480033875,0.032352615147829056
1774159862421573400,13.924573486328125,0.16274763643741608,0.23986080288887024,-0.08434417843818665
1774159862441563400,13.9445634765625,0.1178603246808052,0.25319498777389526,-0.1952539086341858
1774159862461553400,13.964553466796875,0.077285997569561,0.15685886144638062,-0.2605026960372925
1774159862481544400,13.98454443359375,0.1770823746919632,-0.0734206885099411,-0.37468066811561584
1774159862501534500,14.004534423828124,0.25153103470802307,-0.006587328854948282,-0.10497062653303146
1774159862521524500,14.0245244140625,0.2050791084766388,0.22339127957820892,0.16167038679122925
1774159862541514500,14.044514404296875,0.12934574484825134,-0.1275816559791565,0.02148824743926525
1774159862561505300,14.06450537109375,0.14933089911937714,-0.42099010944366455,0.06872420012950897
1774159862581495300,14.084495361328125,0.1885765641927719,-0.28822940587997437,-0.09034614264965057
1774159862601485600,14.104485595703125,0.16097530722618103,-0.30932003259658813,-0.16741935908794403
1774159862621476400,14.124476318359376,0.037993188947439194,0.47884753346443176,0.048952095210552216
1774159862641466400,14.14446630859375,0.046840742230415344,0.7056236863136292,-0.06840222328901291
1774159862661456400,14.164456298828124,-0.07216793298721313,0.6728470921516418,-0.011661183089017868
1774159862681446400,14.1844462890625,-0.22444908320903778,0.5697652101516724,0.03380989655852318
1774159862701437400,14.2044375,-0.3455182611942291,0.5192103981971741,0.16122084856033325
1774159862721427500,14.224427490234374,-0.407840758562088,0.5589314699172974,0.22837857902050018
1774159862741417500,14.24441748046875,-0.33252042531967163,0.24483691155910492,0.30059337615966797
1774159862761408300,14.264408203125,-0.35654452443122864,0.29029548168182373,0.37016260623931885
1774159862781398300,14.284398193359374,-0.3313142955303192,0.1747150868177414,0.24727264046669006
1774159862801388500,14.304388427734375,-0.3202829360961914,0.12519998848438263,0.19543766975402832
1774159862821378600,14.324378662109375,-0.2908574044704437,0.08963880687952042,0.20642080903053284
1774159862841369300,14.344369384765624,-0.3474959135055542,0.228563129901886,0.10523428022861481
1774159862861359400,14.364359375,-0.32354822754859924,0.35726624727249146,0.04561435803771019
1774159862881349400,14.384349365234375,-0.24160756170749664,0.38109061121940613,-0.053276803344488144
1774159862901340400,14.40434033203125,-0.1490805596113205,0.23590467870235443,-0.13651762902736664
1774159862921330400,14.424330322265625,-0.005172391422092915,0.05829579755663872,-0.16437935829162598
1774159862941320400,14.444320556640625,0.05771549418568611,-0.051599010825157166,-0.2606086730957031
1774159862961310500,14.464310546875,0.11286982893943787,0.09392489492893219,-0.3470330536365509
1774159862981301200,14.48430126953125,0.14881637692451477,0.14841051399707794,-0.3745530843734741
1774159863001291300,14.504291259765624,0.06861474364995956,0.28203967213630676,-0.3623789846897125
1774159863021281500,14.524281494140626,0.07886658608913422,0.30125969648361206,-0.31718727946281433
1774159863041272300,14.544272216796875,0.06118479371070862,0.19980792701244354,-0.32917630672454834
1774159863061262300,14.564262451171874,0.08714316040277481,0.18193970620632172,-0.23008966445922852
1774159863081252400,14.58425244140625,0.0970437228679657,-0.02183419279754162,-0.31240662932395935
1774159863101242400,14.604242431640625,0.048108141869306564,0.1287478655576706,-0.17404264211654663
1774159863121233400,14.6242333984375,-0.03537397086620331,0.27845293283462524,-0.1943037062883377
1774159863141223400,14.644223388671875,-0.01920485310256481,-0.2935914099216461,0.08631011843681335
1774159863161213400,14.66421337890625,0.08293216675519943,-0.7624592781066895,0.12974201142787933
1774159863181204200,14.684204345703124,0.11819908022880554,-0.795513391494751,0.03460857644677162
1774159863201194200,14.7041943359375,-0.010282731615006924,-0.6813359260559082,0.15189498662948608
1774159863221184500,14.7241845703125,-0.143607497215271,-0.444118857383728,0.27855491638183594
1774159863241174500,14.744174560546876,-0.248787984251976,-0.32486969232559204,0.2774776816368103
1774159863261165300,14.764165283203125,-0.14725203812122345,-0.2082216441631317,0.2221563756465912
1774159863281156000,14.784156005859375,0.09934575855731964,-0.22152680158615112,-0.02864762395620346
1774159863301146000,14.80414599609375,0.24190238118171692,-0.6181085109710693,-0.08276838064193726
1774159863321135900,14.824135986328125,0.256958544254303,-0.7254530787467957,0.15971748530864716
1774159863341127200,14.844127197265625,0.3111371099948883,-0.7908941507339478,0.24698901176452637
1774159863361117200,14.8641171875,0.3929872214794159,-0.7996974587440491,0.1599542498588562
1774159863381107200,14.884107177734375,0.3829151690006256,-0.5575106739997864,0.1797116994857788
1774159863401098000,14.904097900390624,0.2588624656200409,-0.38941672444343567,0.24528644979000092
1774159863421088000,14.924087890625,0.14889653027057648,-0.37519970536231995,0.20804880559444427
1774159863441078300,14.944078369140625,0.14942970871925354,-0.18677307665348053,0.09477950632572174
1774159863461068000,14.964068115234374,0.1813064068555832,-0.19120724499225616,0.03303784504532814
1774159863481059000,14.98405908203125,0.17635320127010345,-0.35666942596435547,0.05999649316072464
1774159863501049000,15.004049072265625,0.13712270557880402,-0.38969317078590393,0.06049024313688278
1774159863521039000,15.0240390625,0.07527957111597061,-0.3585594892501831,0.06831461191177368
1774159863541030100,15.044030029296875,0.024348748847842216,-0.2906997501850128,0.062437545508146286
1774159863561020200,15.064020263671875,0.016642360016703606,-0.27668485045433044,0.027486750856041908
1774159863581010200,15.08401025390625,0.03620380908250809,-0.29737576842308044,-0.013434316031634808
1774159863601000200,15.104000244140625,0.008972722105681896,-0.1668901890516281,-0.10709502547979355
1774159863620991000,15.123990966796875,0.013010340742766857,-0.0698200911283493,-0.14454492926597595
1774159863640981200,15.143981201171876,-0.022648854181170464,-0.2296515703201294,-0.11580196768045425
1774159863660971300,15.16397119140625,-0.05543076992034912,-0.22896261513233185,-0.0973137691617012
1774159863680961000,15.1839609375,0.07582099735736847,-0.27479588985443115,-0.12830790877342224
1774159863700952000,15.2039521484375,0.3369772136211395,-0.28374728560447693,-0.2803688049316406
1774159863720942000,15.223942138671875,0.6030831933021545,-0.06649966537952423,-0.24199213087558746
1774159863740932000,15.24393212890625,0.7886831760406494,0.3280183672904968,-0.13012737035751343
1774159863760923100,15.263923095703126,0.4755105972290039,0.49962952733039856,-0.38466060161590576
1774159863780913200,15.2839130859375,0.33442696928977966,0.8605213761329651,-0.5046642422676086
1774159863800903200,15.303903076171874,-0.02576235495507717,0.8723719120025635,0.03689543530344963
1774159863820893000,15.323892822265625,-0.005605954211205244,1.0680514574050903,0.16083069145679474
1774159863840884200,15.34388427734375,0.112935870885849,0.7595574855804443,0.18436424434185028
1774159863860874200,15.363874267578124,0.03345915675163269,0.6379227042198181,0.42301276326179504
1774159863880864300,15.3838642578125,-0.07751263678073883,0.7100011110305786,0.3268777132034302
1774159863900855000,15.40385498046875,-0.25986993312835693,0.3074856400489807,0.01558109000325203
1774159863920845000,15.423844970703126,-0.4279332458972931,0.2042926847934723,0.03742273896932602
1774159863940835000,15.4438349609375,-0.449383407831192,0.31105002760887146,0.2762361168861389
1774159863960825000,15.4638251953125,-0.5137053728103638,0.41931337118148804,0.2813594937324524
1774159863980816100,15.483816162109376,-0.39710500836372375,0.30898499488830566,0.17264874279499054
1774159864000806100,15.50380615234375,-0.2506442070007324,0.07897470891475677,0.2098775953054428
1774159864020796200,15.523796142578124,-0.19395536184310913,-0.004412591457366943,0.19173215329647064
1774159864040786000,15.543785888671875,-0.19130417704582214,-0.030976291745901108,0.15369954705238342
1774159864060777200,15.563777099609375,-0.21011382341384888,0.06407298892736435,0.13037452101707458
1774159864080767200,15.583767333984374,-0.219668447971344,0.1428556889295578,0.07799892872571945
1774159864100757200,15.60375732421875,-0.18903303146362305,0.1388431042432785,0.02340465784072876
1774159864120748000,15.623748046875,-0.15300552546977997,-0.08280166983604431,0.005847768858075142
1774159864140738000,15.643738037109374,-0.1394508332014084,-0.28995007276535034,0.10848333686590195
1774159864160728000,15.66372802734375,-0.11553352326154709,-0.305485337972641,0.14332972466945648
1774159864180718000,15.683718017578125,-0.11530182510614395,-0.35696080327033997,0.20663680136203766
1774159864200709000,15.703709228515624,-0.08598148822784424,-0.32451122999191284,0.26338422298431396
1774159864220699100,15.72369921875,0.04790627211332321,-0.35794880986213684,0.3788122832775116
1774159864240689200,15.743689208984375,0.14927950501441956,-0.49576154351234436,0.2627650499343872
1774159864260679000,15.763678955078126,0.288929283618927,-0.751279354095459,-0.07149415463209152
1774159864280670200,15.783670166015625,0.3718124330043793,-0.9166866540908813,-0.41401660442352295
1774159864300660200,15.80366015625,0.44118165969848633,-0.9651527404785156,-0.7780646085739136
1774159864320650200,15.823650146484376,0.40759146213531494,-0.632926881313324,-1.0146042108535767
1774159864340641300,15.843641357421875,0.40521273016929626,-0.13980503380298615,-0.6698601245880127
1774159864360631300,15.86363134765625,0.31049636006355286,-0.5661768317222595,0.1295531988143921
1774159864380621300,15.883621337890625,0.3897213935852051,-1.3125685453414917,0.1710045039653778
1774159864400611000,15.903611083984375,0.23935213685035706,-1.7553019523620605,0.2931027114391327
1774159864420602400,15.923602294921874,0.1039290651679039,-1.103782296180725,0.3815377652645111
1774159864440592400,15.94359228515625,-0.010539992712438107,-1.0934065580368042,0.21059532463550568
1774159864460582100,15.96358203125,-0.0876864418387413,-0.9455947279930115,0.18201027810573578
1774159864480572200,15.983572265625,-0.12837208807468414,-0.774743378162384,0.12994548678398132
1774159864500563200,16.003563232421875,-0.10738744586706161,-0.4326781928539276,0.10440230369567871
1774159864520553200,16.02355322265625,-0.0786074623465538,-0.18418315052986145,0.06115017458796501
1774159864540543200,16.043543212890626,-0.03478115051984787,-0.2976718842983246,0.12569960951805115
1774159864560534300,16.0635341796875,-0.05002055689692497,-0.7607447504997253,0.2626212239265442
1774159864580524300,16.083524169921876,-0.1283145695924759,-0.9175798892974854,0.32219189405441284
1774159864600514000,16.10351416015625,-0.12466523051261902,-0.8854166269302368,0.3364720344543457
1774159864620504000,16.123504150390627,-0.16646434366703033,-0.9192190766334534,0.33781158924102783
1774159864640495400,16.143495361328124,-0.13543371856212616,-0.9549493789672852,0.3649018108844757
1774159864660485400,16.1634853515625,-0.23058980703353882,-0.8061172962188721,0.42619580030441284
1774159864680475100,16.18347509765625,-0.22092358767986298,-0.6513745784759521,0.3793869912624359
1774159864700466200,16.203466064453124,-0.244026780128479,-0.6062989830970764,0.2957456409931183
1774159864720456200,16.223456298828125,-0.2361677885055542,-0.5458252429962158,0.31862086057662964
1774159864740446200,16.2434462890625,-0.22007350623607635,-0.4570208191871643,0.34272006154060364
1774159864760436200,16.263436279296876,-0.1729225069284439,-0.4024854004383087,0.26507002115249634
1774159864780427300,16.28342724609375,-0.12511610984802246,-0.3835955858230591,0.18011224269866943
1774159864800417300,16.303417236328126,-0.10349895805120468,-0.2759338319301605,0.15249019861221313
1774159864820407000,16.323406982421876,-0.07734805345535278,-0.15455521643161774,0.09492012113332748
1774159864840397000,16.34339697265625,-0.01335681788623333,0.0005550027708522975,0.018023476004600525
1774159864860388400,16.363388427734375,0.0702991932630539,0.21628037095069885,-0.10475890338420868
1774159864880378400,16.38337841796875,0.19475963711738586,0.39485597610473633,-0.23470331728458405
1774159864900368100,16.4033681640625,0.2987307608127594,0.4889470636844635,-0.33320939540863037
1774159864920359200,16.423359130859374,0.37657684087753296,0.4951426386833191,-0.35014763474464417
1774159864940349200,16.44334912109375,0.4339061677455902,0.5331523418426514,-0.34972870349884033
1774159864960339200,16.463339111328125,0.4825855493545532,0.594528317451477,-0.30155131220817566
1774159864980329200,16.4833291015625,0.5368996858596802,0.6466383934020996,-0.2844889760017395
1774159865000320300,16.5033203125,0.5462875962257385,0.8081849813461304,-0.3585056960582733
1774159865020310300,16.523310302734377,0.512033998966217,1.1031651496887207,-0.25890105962753296
1774159865040300000,16.543300048828126,0.40505561232566833,0.9801676273345947,0.09950076043605804
1774159865060290300,16.563290283203123,0.1875762939453125,0.8431501388549805,0.3477766215801239
1774159865080281300,16.58328125,0.12328944355249405,1.104625940322876,0.27964577078819275
1774159865100271000,16.60327099609375,-0.020535901188850403,1.3109862804412842,0.03888694569468498
1774159865120261000,16.62326123046875,-0.16167491674423218,1.7408626079559326,-0.02864682488143444
1774159865140251100,16.643251220703124,-0.33335745334625244,2.0749728679656982,0.059542953968048096
1774159865160242400,16.663242431640626,-0.39156457781791687,1.9110395908355713,0.07814007252454758
1774159865180232200,16.683232177734375,-0.320576936006546,1.5526481866836548,0.008432100526988506
1774159865200222200,16.70322216796875,-0.3815564215183258,1.1864593029022217,0.13747982680797577
1774159865220213200,16.723213134765626,-0.45883867144584656,1.017113447189331,0.28667810559272766
1774159865240203300,16.743203369140623,-0.5290342569351196,1.050000548362732,0.24049489200115204
1774159865260193000,16.763193115234376,-0.5827574133872986,1.0467480421066284,0.16015557944774628
1774159865280183600,16.78318359375,-0.5794814825057983,0.9141933917999268,0.06967228651046753
1774159865300174600,16.803174560546875,-0.5485619306564331,0.7309852242469788,-0.00771704176440835
1774159865320164400,16.823164306640624,-0.5199744701385498,0.7045837640762329,-0.009064601734280586
1774159865340154400,16.843154296875,-0.4864599108695984,0.6915653944015503,-0.033617615699768066
1774159865360144400,16.863144287109375,-0.4196513295173645,0.5421801805496216,-0.12138634920120239
1774159865380135400,16.883135498046876,-0.3253757059574127,0.3758662939071655,-0.1715720146894455
1774159865400125400,16.90312548828125,-0.22465866804122925,0.2374386489391327,-0.1592991054058075
1774159865420115500,16.923115478515626,-0.1481681615114212,0.1103917583823204,-0.17047932744026184
1774159865440106500,16.9431064453125,-0.05160779878497124,-0.048717472702264786,-0.21897469460964203
1774159865460096300,16.96309619140625,0.053405169397592545,-0.12161111831665039,-0.2550218999385834
1774159865480086500,16.98308642578125,0.11999005079269409,-0.16152390837669373,-0.2553127110004425
1774159865500076500,17.00307666015625,0.16258864104747772,-0.19393005967140198,-0.2327011525630951
1774159865520067300,17.0230673828125,0.22066473960876465,-0.28556835651397705,-0.38071778416633606
1774159865540057300,17.043057373046874,0.3340802490711212,-0.1605404019355774,-0.593926727771759
1774159865560047400,17.06304736328125,0.4813826084136963,-0.17685920000076294,-0.9700335264205933
1774159865580037400,17.083037353515625,0.4810337424278259,-0.0008695221040397882,-0.9401192665100098
1774159865600028400,17.1030283203125,0.5152995586395264,0.4112224280834198,-0.3065527379512787
1774159865620018400,17.123018310546875,0.4394040107727051,-0.5187994837760925,0.18255436420440674
1774159865640008400,17.143008544921877,0.3546946942806244,-1.0788694620132446,0.29654377698898315
1774159865659998500,17.16299853515625,0.14911171793937683,-1.3454073667526245,0.052390504628419876
1774159865679989500,17.182989501953124,-0.010958109050989151,-1.1032328605651855,0.03308418393135071
1774159865699979500,17.2029794921875,-0.07586546987295151,-0.7183754444122314,0.1138293594121933
1774159865719969500,17.222969482421874,0.09342821687459946,-0.513674795627594,-0.040408674627542496
1774159865739960300,17.242960205078123,0.11437264829874039,-0.5240786671638489,-0.0622846782207489
1774159865759950300,17.262950439453125,0.18478475511074066,-0.6095166206359863,0.001814677962101996
1774159865779940400,17.2829404296875,0.3359074294567108,-0.7567143440246582,0.028064657002687454
1774159865799930600,17.3029306640625,0.3950810134410858,-0.9396393895149231,0.018515361472964287
1774159865819921400,17.32292138671875,0.3617510199546814,-0.7298619151115417,0.06869065016508102
1774159865839911400,17.342911376953126,0.28752365708351135,-0.5259556770324707,0.1996001899242401
1774159865859901400,17.3629013671875,0.2114533931016922,-0.4348672926425934,0.25762301683425903
1774159865879891500,17.382891357421876,0.15279221534729004,-0.34994202852249146,0.22865527868270874
1774159865899882500,17.402882568359374,0.0679502859711647,-0.20450013875961304,0.18150508403778076
1774159865919872500,17.42287255859375,0.013998906128108501,-0.08337318897247314,0.15904025733470917
1774159865939862500,17.442862548828124,-0.045759230852127075,-0.06948187202215195,0.16971392929553986
1774159865959852500,17.4628525390625,-0.12739869952201843,-0.03400483727455139,0.17761047184467316
1774159865979843300,17.48284326171875,-0.18697547912597656,0.14318352937698364,0.15678775310516357
1774159865999833600,17.50283349609375,-0.20632867515087128,0.32483533024787903,0.16032016277313232
1774159866019823600,17.52282373046875,-0.20191635191440582,0.4348877966403961,0.15827831625938416
1774159866039813600,17.542813720703126,-0.17553241550922394,0.4786531329154968,0.16028261184692383
1774159866059804400,17.562804443359376,-0.15116289258003235,0.502626359462738,0.1579776555299759
1774159866079794400,17.58279443359375,-0.12833799421787262,0.5350874066352844,0.1326877325773239
1774159866099784400,17.602784423828126,-0.09485168009996414,0.5194293260574341,0.07305290549993515
1774159866119775500,17.622775390625,-0.06707650423049927,0.46082061529159546,0.002772616920992732
1774159866139765500,17.642765625,-0.06281571090221405,0.39822033047676086,-0.051536694169044495
1774159866159755500,17.662755615234374,-0.04734993726015091,0.3935057520866394,-0.08384057134389877
1774159866179745500,17.68274560546875,0.01293124444782734,0.43874698877334595,-0.14736256003379822
1774159866199736300,17.702736328125,0.0974101796746254,0.4374428391456604,-0.2607583701610565
1774159866219726600,17.7227265625,0.1693011373281479,0.3826674818992615,-0.3072901666164398
1774159866239716600,17.742716552734375,0.23907995223999023,0.5391423106193542,-0.288298636674881
1774159866259706600,17.76270654296875,0.3040482997894287,1.1107834577560425,-0.22748269140720367
1774159866279697200,17.782697265625,0.19068366289138794,0.9897973537445068,-0.09806877374649048
1774159866299687200,17.802687255859375,0.11069988459348679,0.5597855448722839,0.04933851957321167
1774159866319677200,17.82267724609375,0.07701648771762848,0.7080050706863403,0.15990763902664185
1774159866339667200,17.842667236328126,-0.03236566111445427,0.8355768918991089,0.062315840274095535
1774159866359658000,17.862657958984375,-0.17378564178943634,1.2199981212615967,0.04827778413891792
1774159866379648300,17.882648193359376,-0.30961430072784424,1.6848562955856323,0.14426849782466888
1774159866399638300,17.90263818359375,-0.3315449059009552,1.3451619148254395,0.15834224224090576
1774159866419628000,17.9226279296875,-0.24629846215248108,0.4256913959980011,-0.024418523535132408
1774159866439619000,17.942619140625,-0.26068246364593506,0.35130611062049866,0.16965320706367493
1774159866459609000,17.962609130859374,-0.3330618441104889,0.5734291672706604,0.3881298899650574
1774159866479599000,17.98259912109375,-0.38388535380363464,0.44382432103157043,0.29804128408432007
1774159866499590100,18.002590087890624,-0.4449758529663086,0.40939125418663025,0.2789086103439331
1774159866519580200,18.022580078125,-0.4538516402244568,0.5039148330688477,0.31204259395599365
1774159866539570200,18.042570068359375,-0.39581018686294556,0.5211939215660095,0.2753026783466339
1774159866559560000,18.062559814453124,-0.3427480161190033,0.40478265285491943,0.2082597315311432
1774159866579551000,18.082551025390625,-0.2568539083003998,0.2904011905193329,0.10930092632770538
1774159866599541200,18.102541259765626,-0.19574978947639465,0.23189155757427216,0.055088553577661514
1774159866619531300,18.12253125,-0.15499544143676758,0.17867892980575562,0.04976675659418106
1774159866639521000,18.14252099609375,-0.10081049799919128,0.07930947095155716,-0.008289354853332043
1774159866659512000,18.162511962890626,-0.035406991839408875,-0.006061621010303497,-0.015721438452601433
1774159866679502000,18.182502197265624,0.01823679357767105,-0.06648315489292145,0.007139136083424091
1774159866699492000,18.2024921875,0.04262256249785423,-0.054551392793655396,0.07129868119955063
1774159866719482000,18.222482177734374,0.03893967717885971,0.013885455206036568,0.13395540416240692
1774159866739473200,18.24247314453125,0.048041295260190964,-0.01176078524440527,0.044128578156232834
1774159866759463200,18.262463134765625,0.05223817005753517,-0.3725437521934509,-0.31541866064071655
1774159866779453000,18.282452880859374,0.05788300558924675,-0.5212165713310242,-0.5944063663482666
1774159866799443000,18.30244287109375,0.09626315534114838,-0.38381505012512207,-0.6975865364074707
1774159866819434200,18.322434326171877,0.20375898480415344,-0.24875043332576752,-0.5068256258964539
1774159866839424300,18.34242431640625,0.30536949634552,-0.2195771038532257,-0.37171709537506104
1774159866859414000,18.3624140625,0.32618024945259094,-0.7709065675735474,-0.12553901970386505
1774159866879405000,18.382405029296876,0.2944878339767456,-0.8447480201721191,0.02419082447886467
1774159866899395000,18.40239501953125,0.209228053689003,-0.7025434970855713,0.05734451487660408
1774159866919385000,18.422385009765627,0.10780715942382812,-0.7047991752624512,0.08533327281475067
1774159866939375000,18.442375,0.05830671638250351,-0.7587202191352844,0.10700394958257675
1774159866959366100,18.4623662109375,0.1352800577878952,-0.5454667806625366,0.013649499043822289
1774159866979356200,18.482356201171875,0.10766813904047012,-0.5166825652122498,-0.057545050978660583
1774159866999346000,18.502345947265624,0.11944384127855301,-0.5836314558982849,-0.0526333823800087
1774159867019336000,18.5223359375,0.1399155557155609,-0.7483277320861816,-0.024225179105997086
1774159867039327200,18.5423271484375,0.17254354059696198,-0.8488056063652039,-0.01016608439385891
1774159867059317000,18.56231689453125,0.1597324013710022,-0.7350934147834778,0.03117629513144493
1774159867079307000,18.58230712890625,0.09685144573450089,-0.6767017841339111,0.05538283288478851
1774159867099297000,18.602297119140626,0.041072603315114975,-0.6048353314399719,0.07810065895318985
1774159867119288300,18.622288330078124,0.00044368262751959264,-0.5164353847503662,0.1067538782954216
1774159867139278000,18.642278076171873,-0.04153705760836601,-0.438671350479126,0.10979467630386353
1774159867159268000,18.66226806640625,-0.08288875967264175,-0.39972156286239624,0.14969654381275177
1774159867179258000,18.682258056640624,-0.12226971983909607,-0.40080493688583374,0.17436115443706512
1774159867199249200,18.702249267578125,-0.14939135313034058,-0.37960192561149597,0.1661066859960556
1774159867219239000,18.722239013671874,-0.14874926209449768,-0.3198184669017792,0.15409289300441742
1774159867239229200,18.742229248046876,-0.13534876704216003,-0.3103725016117096,0.133107990026474
1774159867259219200,18.76221923828125,-0.10663669556379318,-0.29530754685401917,0.08775462210178375
1774159867279210200,18.782210205078126,-0.032286833971738815,-0.22309380769729614,0.0559823103249073
1774159867299200300,18.8022001953125,0.05238863825798035,-0.19537295401096344,0.028348283842206
1774159867319190300,18.822190185546877,0.12822455167770386,-0.16140247881412506,-0.027294205501675606
1774159867339181300,18.842181396484374,0.1788341999053955,-0.08763664215803146,-0.07754112780094147
1774159867359171000,18.862171142578124,0.17409244179725647,-0.03653430938720703,-0.059474244713783264
1774159867379161000,18.8821611328125,0.15658001601696014,-0.014702247455716133,-0.10139293223619461
1774159867399151400,18.9021513671875,0.20079408586025238,0.07403534650802612,-0.1453753113746643
1774159867419142100,18.92214208984375,0.2727140784263611,0.17338350415229797,-0.060809556394815445
1774159867439132200,18.942132080078125,0.3350885212421417,0.4096277356147766,-0.06752657890319824
1774159867459122200,18.9621220703125,0.3037883937358856,0.8075863122940063,-0.1519130915403366
1774159867479112200,18.9821123046875,0.29495227336883545,1.2570064067840576,-0.1631726771593094
1774159867499103200,19.002103271484376,0.28879639506340027,1.2382476329803467,-0.0654117614030838
1774159867519093200,19.02209326171875,0.15882639586925507,0.9897699356079102,0.01432061567902565
1774159867539083300,19.042083251953127,0.11769946664571762,0.7572435140609741,0.04868391528725624
1774159867559073300,19.0620732421875,0.01757313497364521,0.9988068342208862,-0.0410531610250473
1774159867579064000,19.08206396484375,-0.18856485188007355,1.3000942468643188,-0.10097721219062805
1774159867599054300,19.102054443359375,-0.2892152965068817,1.0860551595687866,-0.23884373903274536
1774159867619044400,19.12204443359375,-0.23833000659942627,0.4808611571788788,-0.17234887182712555
1774159867639034400,19.142034423828125,-0.27403074502944946,0.5737348794937134,0.24523372948169708
1774159867659025200,19.162025146484375,-0.3563930094242096,0.7211512327194214,0.3022908866405487
1774159867679015200,19.18201513671875,-0.3997593820095062,0.5709148645401001,0.1636246144771576
1774159867699005200,19.202005126953125,-0.4895944595336914,0.545056939125061,0.17413771152496338
1774159867718995500,19.221995361328126,-0.4726210832595825,0.7210391163825989,0.1772346943616867
1774159867738986200,19.241986328125,-0.40830254554748535,0.820461094379425,0.16233325004577637
1774159867758976300,19.261976318359373,-0.37773558497428894,0.7395635843276978,0.17154192924499512
1774159867778966300,19.28196630859375,-0.3130127787590027,0.6340941190719604,0.15614619851112366
1774159867798957000,19.30195703125,-0.22810854017734528,0.646754801273346,0.13102112710475922
1774159867818947300,19.321947265625,-0.14761129021644592,0.5816215872764587,0.05260488763451576
1774159867838937300,19.341937255859374,-0.07536106556653976,0.46704229712486267,-0.0002407497668173164
1774159867858927400,19.36192724609375,0.010958908125758171,0.2158939391374588,-0.034564901143312454
1774159867878918100,19.381918212890625,0.09595023095607758,-0.17345914244651794,-0.0961313247680664
1774159867898908200,19.401908203125,0.17385195195674896,-0.45291662216186523,-0.10142195969820023
1774159867918898200,19.421898193359375,0.20591241121292114,-0.4143945276737213,-0.0029555761720985174
1774159867938888200,19.44188818359375,0.21949666738510132,-0.21602284908294678,-0.14741314947605133
1774159867958879200,19.461879150390626,0.2209334522485733,-0.11289938539266586,-0.4047786593437195
1774159867978869200,19.481869140625,0.1858721375465393,-0.048890311270952225,-0.5079774856567383
1774159867998859300,19.501859375,0.16050659120082855,-0.3783728778362274,-0.6771963238716125
1774159868018849000,19.52184912109375,0.14580672979354858,0.059305932372808456,-0.5155171155929565
1774159868038840300,19.54184033203125,0.12068647146224976,0.321395605802536,-0.35602042078971863
1774159868058830300,19.561830322265624,-0.007571367081254721,0.06644213944673538,-0.07765670865774155
1774159868078820400,19.5818203125,-0.04283588007092476,-0.2017379105091095,0.274923175573349
1774159868098810000,19.60181005859375,-0.11709493398666382,-0.40629318356513977,0.43862849473953247
1774159868118801200,19.62180126953125,-0.25277820229530334,-0.5149104595184326,0.47104793787002563
1774159868138791400,19.64179150390625,-0.38508322834968567,-0.6293835043907166,0.42767465114593506
1774159868158781200,19.66178125,-0.37891241908073425,-0.6280301213264465,0.27257028222084045
1774159868178771200,19.681771240234376,-0.1853344440460205,-0.40277567505836487,0.07257833331823349
1774159868198762200,19.70176220703125,-0.006143379956483841,-0.2748933434486389,-0.05940207466483116
1774159868218752300,19.721752197265626,0.16178250312805176,-0.8131523132324219,0.02437245100736618
1774159868238742000,19.741741943359376,0.28599101305007935,-1.474622368812561,0.16109301149845123
1774159868258732300,19.761732177734373,0.37497761845588684,-1.7521592378616333,0.22993360459804535
1774159868278723300,19.781723388671875,0.43800875544548035,-1.34183931350708,0.09362635761499405
1774159868298712800,19.801712890625,0.35029035806655884,-0.9610037803649902,0.026489930227398872
1774159868318702600,19.82170263671875,0.2265511155128479,-0.798210620880127,0.011239605024456978
1774159868338692600,19.841692626953126,0.14832928776741028,-0.5740517973899841,-0.03148682042956352
1774159868358684000,19.861683837890624,0.1615670621395111,-0.28888559341430664,-0.06447646021842957
1774159868378673700,19.881673583984377,0.18153411149978638,-0.10060090571641922,-0.03675801306962967
1774159868398663700,19.90166357421875,0.16445951163768768,-0.08449357748031616,0.0022533005103468895
1774159868418653700,19.92165380859375,0.08785714954137802,-0.08385814726352692,0.04850894585251808
1774159868438644700,19.941644775390625,0.026679281145334244,-0.008441953919827938,0.06398776918649673
1774159868458634500,19.961634521484374,-0.01702106185257435,0.1121923178434372,0.07859601080417633
1774159868478624800,19.981624755859375,-0.014013820327818394,0.23211899399757385,0.1058792918920517
1774159868498615800,20.00161572265625,0.006932474672794342,0.35449710488319397,0.1127457246184349
1774159868518605800,20.021605712890626,0.039503999054431915,0.4486345052719116,0.06759848445653915
1774159868538595600,20.041595703125,0.0561990886926651,0.5510466694831848,0.018643725663423538
1774159868558585600,20.061585693359376,0.07462336868047714,0.7001621127128601,-0.05283258855342865
1774159868578577000,20.081576904296874,0.154984250664711,0.5765072703361511,0.003564641112461686
1774159868598566700,20.101566650390627,0.2453700751066208,0.5556251406669617,0.12236160039901733
1774159868618556700,20.121556640625,0.2082408219575882,0.9497711062431335,0.012033226899802685
1774159868638546700,20.141546630859374,0.09199224412441254,1.455933928489685,-0.1293976753950119
1774159868658537700,20.161537841796875,-0.00771624268963933,1.5870453119277954,-0.04180683568120003
1774159868678527700,20.18152783203125,-0.023862455040216446,1.1960549354553223,0.1976662129163742
1774159868698517800,20.201517822265625,-0.027003655210137367,0.8020825982093811,0.21414797008037567
1774159868718507800,20.2215078125,-0.12283138185739517,1.0834356546401978,-0.07741409540176392
1774159868738498600,20.24149853515625,-0.10724443197250366,1.0912667512893677,-0.18609078228473663
1774159868758488600,20.261488525390625,-0.14365224540233612,0.6004070043563843,0.16370292007923126
1774159868778478600,20.281478515625,-0.2519504725933075,0.5806663036346436,0.24065308272838593
1774159868798468900,20.30146875,-0.25407782196998596,0.7907633781433105,0.10465264320373535
1774159868818459600,20.321459716796873,-0.2696429193019867,0.6554396152496338,0.1883736401796341
1774159868838449700,20.34144970703125,-0.2540013790130615,0.513841986656189,0.16411331295967102
1774159868858439700,20.361439697265624,-0.21081049740314484,0.4241941571235657,0.067030169069767
1774159868878429700,20.3814296875,-0.17842113971710205,0.4228660464286804,-0.0070856064558029175
1774159868898420700,20.401420654296874,-0.1676052361726761,0.45972925424575806,-0.016716662794351578
1774159868918410800,20.42141064453125,-0.18495973944664001,0.4844340682029724,-0.04396719112992287
1774159868938400800,20.44140087890625,-0.21057747304439545,0.5263977646827698,-0.12195919454097748
1774159868958390800,20.461390869140626,-0.22192174196243286,0.512933611869812,-0.11216381937265396
1774159868978381600,20.481381591796875,-0.20438562333583832,0.3660261929035187,-0.09841632097959518
1774159868998371600,20.50137158203125,-0.1785321980714798,0.2716307044029236,-0.05392634868621826
1774159869018361900,20.52136181640625,-0.1726764291524887,0.16953976452350616,0.05723772197961807
1774159869038352000,20.541351806640623,-0.14999482035636902,-0.009980462491512299,0.13514849543571472
1774159869058342700,20.5613427734375,-0.08763158321380615,-0.35423317551612854,-0.08178940415382385
1774159869078332700,20.581332763671874,-0.04982907697558403,-1.0322412252426147,-0.5495217442512512
1774159869098322700,20.60132275390625,0.037813425064086914,-1.222602367401123,-0.7254860997200012
1774159869118313000,20.62131298828125,0.10117721557617188,-0.5318686962127686,-0.5387657284736633
1774159869138303700,20.6413037109375,0.25048360228538513,0.10016787797212601,-0.34240686893463135
1774159869158293800,20.661293701171875,0.28929412364959717,-0.6115408539772034,-0.07468914985656738
1774159869178283800,20.68128369140625,0.3270537555217743,-1.259512186050415,0.27441105246543884
1774159869198274600,20.701274658203126,0.12879632413387299,-1.3568328619003296,0.3042096793651581
1774159869218264800,20.721264892578127,-0.23746901750564575,-1.5951833724975586,0.24106374382972717
1774159869238254800,20.7412548828125,-0.333685040473938,-1.3798367977142334,0.313288152217865
1774159869258244900,20.761244873046873,-0.12600480020046234,-0.6622229814529419,0.15773263573646545
1774159869278235600,20.781235595703127,-0.036556679755449295,-0.32377299666404724,-0.06859983503818512
1774159869298225400,20.801225341796876,-0.020771058276295662,-0.4196334779262543,-0.00529622845351696
1774159869318215700,20.821215576171873,0.1574154496192932,-0.6404468417167664,0.05703479051589966
1774159869338205700,20.841205810546874,0.27501797676086426,-0.7623895406723022,0.047815192490816116
1774159869358196500,20.861196533203124,0.3100508153438568,-0.6000013947486877,0.004459729418158531
1774159869378186500,20.8811865234375,0.25267699360847473,-0.37021294236183167,0.04711265116930008
1774159869398176500,20.901176513671874,0.16282300651073456,-0.41064319014549255,0.10336659848690033
1774159869418166300,20.921166259765624,0.10519859194755554,-0.450807124376297,0.1002187430858612
1774159869438157600,20.941157470703125,0.06410388648509979,-0.2659328877925873,0.10348750650882721
1774159869458147600,20.961147705078126,0.06769755482673645,-0.04312163591384888,0.11841772496700287
1774159869478137600,20.9811376953125,0.053100503981113434,0.10770995169878006,0.15722210705280304
1774159869498127400,21.00112744140625,-0.0308668352663517,0.2261790782213211,0.10091836005449295
1774159869518118700,21.02111865234375,-0.08907341957092285,0.4770382046699524,0.09707435220479965
1774159869538108700,21.041108642578124,-0.11449088901281357,0.5643779039382935,0.07051917165517807
1774159869558098400,21.061098388671876,-0.08197209984064102,0.6621473431587219,0.11172200739383698
1774159869578088400,21.08108837890625,-0.0227990560233593,0.7677627205848694,0.17886029183864594
1774159869598079500,21.10107958984375,0.06172275170683861,0.7866650223731995,0.16115932166576385
1774159869618069500,21.121069580078125,0.11272921413183212,0.6008983254432678,0.23366868495941162
1774159869638059500,21.1410595703125,0.1174030601978302,0.3056238293647766,0.21269628405570984
1774159869658049500,21.161049560546875,0.1701751947402954,-0.0441562756896019,0.00920335203409195
1774159869678040600,21.18104052734375,0.29469794034957886,-0.0768018364906311,-0.18558716773986816
1774159869698030600,21.201030517578126,0.39950132369995117,0.31369268894195557,-0.25595906376838684
1774159869718020400,21.221020263671875,0.6431717872619629,0.7263619899749756,-0.40236902236938477
1774159869738010400,21.24101025390625,0.6718726754188538,1.048441767692566,-0.48996731638908386
1774159869758001700,21.261001708984374,0.5881116986274719,1.187861442565918,-0.4349144399166107
1774159869777991400,21.280991455078127,0.453533411026001,1.5332708358764648,-0.24630537629127502
1774159869797981400,21.3009814453125,0.300924688577652,1.501502513885498,-0.03134780377149582
1774159869817972500,21.320972412109374,0.12494566291570663,1.0803406238555908,0.2818135619163513
1774159869837962800,21.340962646484375,-0.10445290803909302,0.9079573750495911,0.439633309841156
1774159869857952500,21.360952392578124,-0.3425019681453705,1.0280358791351318,0.3695727288722992
1774159869877942500,21.380942626953125,-0.6039167642593384,0.31097546219825745,-0.0678432285785675
1774159869897933600,21.40093359375,-0.594833254814148,0.04466333985328674,-0.15649080276489258
1774159869917923300,21.42092333984375,-0.5470582842826843,0.5262797474861145,0.19328664243221283
1774159869937913300,21.440913330078125,-0.5601764917373657,0.8625879883766174,0.2586328983306885
1774159869957903600,21.460903564453126,-0.5285096168518066,0.953460693359375,0.17884671688079834
1774159869977894700,21.480894775390624,-0.4576556980609894,1.1431344747543335,0.24438230693340302
1774159869997884400,21.500884521484377,-0.36347994208335876,1.306061029434204,0.3714286684989929
1774159870017874400,21.52087451171875,-0.29908204078674316,1.2686790227890015,0.5252070426940918
1774159870037864400,21.540864501953124,-0.27123790979385376,0.8571929931640625,0.5968348979949951
1774159870057855500,21.56085546875,-0.25376036763191223,0.43749210238456726,0.5361278653144836
1774159870077845500,21.580845458984374,-0.22282162308692932,0.2877731919288635,0.44363150000572205
1774159870097835500,21.60083544921875,-0.18212106823921204,0.19383604824543,0.37603726983070374
1774159870117825500,21.620825439453125,-0.13995470106601715,0.3304722011089325,0.26233282685279846
1774159870137816300,21.64081640625,-0.10417034476995468,0.37655553221702576,0.17894046008586884
1774159870157806300,21.660806396484375,-0.05260328948497772,0.29227474331855774,0.132343128323555
1774159870177796600,21.680796630859376,-0.010700847953557968,0.1516992449760437,0.07091997563838959
1774159870197786600,21.70078662109375,-0.0006498112925328314,0.05162084847688675,-0.013032178394496441
1774159870217777400,21.72077734375,-0.04272402822971344,-0.001490571303293109,-0.09659764915704727
1774159870237767400,21.740767333984376,-0.08623821288347244,0.05999942123889923,-0.08432526886463165
1774159870257757400,21.76075732421875,-0.1344374418258667,0.19577589631080627,-0.07646548002958298
1774159870277747500,21.78074755859375,-0.1465529501438141,0.20330145955085754,-0.18603724241256714
1774159870297739500,21.800739501953124,-0.1528470665216446,0.08018671721220016,-0.3515298068523407
1774159870317729500,21.8207294921875,-0.1438107043504715,-0.05506804585456848,-0.541471004486084
1774159870337719600,21.840719482421875,-0.11546534299850464,-0.143307626247406,-0.5575919151306152
1774159870357709300,21.860709228515624,-0.027786357328295708,-0.4849986433982849,-0.325692355632782
1774159870377700400,21.880700439453125,-0.09985682368278503,0.04164598137140274,0.5358107089996338
1774159870397690400,21.9006904296875,-0.25046950578689575,-0.02009275183081627,0.6384696960449219
1774159870417680400,21.920680419921876,-0.1284884661436081,-0.862981379032135,-0.2385326772928238
1774159870437670400,21.94067041015625,0.01130804792046547,-0.8421820998191833,-0.31806159019470215
1774159870457661400,21.960661376953126,0.03653191030025482,-0.16562464833259583,0.1463279128074646
1774159870477651500,21.9806513671875,0.014313957653939724,-0.15800347924232483,0.055630505084991455
1774159870497641200,22.00064111328125,0.07964236289262772,-0.32203903794288635,-0.3180895447731018
1774159870517632500,22.020632568359375,0.13130635023117065,-0.2895260751247406,-0.521602988243103
1774159870537622500,22.04062255859375,0.1557254195213318,-0.12310994416475296,-0.35410216450691223
1774159870557612500,22.060612548828125,0.16227786242961884,-0.007222759071737528,-0.11762623488903046
1774159870577602300,22.080602294921874,0.18751609325408936,0.0522347092628479,-0.030314229428768158
1774159870597593300,22.10059326171875,0.16178570687770844,0.1407880038022995,0.019340941682457924
1774159870617583400,22.120583251953125,0.08539372682571411,0.1962166428565979,0.08714795112609863
1774159870637573400,22.140573486328126,0.004592621233314276,0.2230440080165863,0.14400750398635864
1774159870657563400,22.1605634765625,-0.023839818313717842,0.1222393587231636,0.14166845381259918
1774159870677554400,22.180554443359377,-0.0287656020373106,0.011628160253167152,0.18532219529151917
1774159870697544400,22.20054443359375,-0.00851492490619421,-0.006643787957727909,0.15292562544345856
1774159870717534200,22.2205341796875,0.04370700195431709,-0.10795868933200836,0.055808670818805695
1774159870737524200,22.240524169921876,0.12240047752857208,-0.1819692701101303,-0.01901257410645485
1774159870757515500,22.260515625,0.17383144795894623,-0.20674678683280945,0.012369051575660706
1774159870777505300,22.28050537109375,0.14705389738082886,-0.33751678466796875,0.04947354272007942
1774159870797495300,22.300495361328124,0.18735390901565552,-0.48017698526382446,-0.1674334704875946
1774159870817485300,22.3204853515625,0.2912542223930359,-0.657966673374176,-0.256462424993515
1774159870837476600,22.3404765625,0.34719765186309814,-0.6843506097793579,-0.3715114891529083
1774159870857466400,22.36046630859375,0.46090689301490784,-0.014506238512694836,-0.4358294904232025
1774159870877456400,22.380456298828125,0.5550065040588379,0.5948963761329651,-0.6451065540313721
1774159870897446400,22.4004462890625,0.48989060521125793,0.9205732941627502,-0.5316463112831116
1774159870917437400,22.4204375,0.4937748312950134,0.9045525193214417,-0.36832395195961
1774159870937427200,22.44042724609375,0.27369600534439087,0.7882485389709473,-0.11330845206975937
1774159870957417500,22.46041748046875,0.11906034499406815,1.109622597694397,0.2917620837688446
1774159870977407500,22.480407470703124,-0.12648843228816986,1.2374154329299927,0.3298466205596924
1774159870997398300,22.500398193359374,-0.28109291195869446,1.5816417932510376,0.006150570698082447
1774159871017388300,22.52038818359375,-0.26825329661369324,1.7738354206085205,-0.12906238436698914
1774159871037378300,22.54037841796875,-0.28423812985420227,0.8831290006637573,-0.0006807039608247578
1774159871057369300,22.560369384765625,-0.1985730081796646,0.7731937170028687,0.241001695394516
1774159871077359400,22.580359375,-0.2714296281337738,1.2301063537597656,0.42373794317245483
1774159871097349400,22.600349365234376,-0.35753655433654785,1.3615520000457764,0.5585522055625916
1774159871117339400,22.62033935546875,-0.4242199957370758,1.2631868124008179,0.6385301351547241
1774159871137330200,22.640330078125,-0.4220910668373108,1.3325376510620117,0.6942232251167297
1774159871157320400,22.660320556640624,-0.35090234875679016,1.283340334892273,0.6211602091789246
1774159871177310500,22.680310546875,-0.3058866858482361,1.1583904027938843,0.5688328146934509
1774159871197300500,22.700300537109374,-0.2728981077671051,1.1302276849746704,0.5734840631484985
1774159871217291300,22.720291259765624,-0.22897326946258545,1.0758334398269653,0.4747428297996521
1774159871237281300,22.74028125,-0.18854807317256927,1.065395474433899,0.436051607131958
1774159871257271300,22.760271240234374,-0.1492355614900589,1.0154649019241333,0.47315743565559387
1774159871277261600,22.780261474609375,-0.13932940363883972,0.8719325065612793,0.46204593777656555
1774159871297251600,22.80025146484375,-0.10806947946548462,0.5862869024276733,0.30003970861434937
1774159871317241600,22.82024169921875,-0.08079684525728226,0.14407195150852203,0.0466492623090744
1774159871337231600,22.840231689453127,-0.12694703042507172,-0.30865877866744995,-0.14894473552703857
1774159871357221600,22.8602216796875,-0.21032500267028809,-0.49566540122032166,-0.3193095624446869
1774159871377212400,22.88021240234375,-0.25778335332870483,-0.4133976995944977,-0.43516239523887634
1774159871397202700,22.90020263671875,-0.3505851924419403,-0.39545759558677673,-0.507703959941864
1774159871417192700,22.920192626953124,-0.41667819023132324,-0.633612871170044,-0.692186176776886
1774159871437182700,22.9401826171875,-0.41699111461639404,-0.9592463970184326,-0.9595430493354797
1774159871457173500,22.960173583984375,-0.30923721194267273,-1.2337770462036133,-1.2145500183105469
1774159871477163500,22.98016357421875,-0.16422195732593536,-1.004193663597107,-0.8624638915061951
1774159871497153500,23.000153564453125,-0.25039440393447876,-0.505164623260498,-0.3874979317188263
1774159871517144600,23.02014453125,-0.24769474565982819,-0.2784939408302307,-0.22152332961559296
1774159871537134600,23.040134521484376,-0.2439383566379547,-0.4204537570476532,0.01458826381713152
1774159871557124600,23.06012451171875,-0.17470602691173553,-0.8064666986465454,0.24707503616809845
1774159871577114600,23.080114501953126,-0.08777672052383423,-1.0083034038543701,0.22006818652153015
1774159871597105700,23.100105712890624,0.004779841285198927,-1.0715569257736206,0.020871726796030998
1774159871617095700,23.120095703125,0.09143377840518951,-0.9975442290306091,-0.1364198923110962
1774159871637085700,23.140085693359374,0.07288353145122528,-0.8686549663543701,-0.08076702058315277
1774159871657075700,23.16007568359375,0.13114283978939056,-0.8852906823158264,0.0587349534034729
1774159871677066500,23.18006640625,0.19242005050182343,-1.095125436782837,0.11321283876895905
1774159871697056500,23.200056396484374,0.2780630588531494,-1.1435028314590454,0.22527892887592316
1774159871717046800,23.220046875,0.33634740114212036,-0.9664904475212097,0.35095110535621643
1774159871737036800,23.240036865234377,0.3321060538291931,-0.8567855358123779,0.4617338180541992
1774159871757027600,23.260027587890626,0.29519274830818176,-0.9257680773735046,0.5056213736534119
1774159871777017600,23.280017578125,0.2705577313899994,-1.0106643438339233,0.46047359704971313
1774159871797007600,23.300007568359376,0.24461373686790466,-0.9999725222587585,0.4352739751338959
1774159871816998700,23.31999853515625,0.22354866564273834,-0.9901989698410034,0.3834661543369293
1774159871836988700,23.33998876953125,0.1919044554233551,-0.9564527273178101,0.3510749340057373
1774159871856978700,23.359978759765625,0.15782985091209412,-0.8434627652168274,0.31707969307899475
1774159871876968700,23.37996875,0.15961548686027527,-0.735737681388855,0.2881593406200409
1774159871896959500,23.39995947265625,0.1739661991596222,-0.6623561382293701,0.30596524477005005
1774159871916949800,23.41994970703125,0.19322378933429718,-0.5460803508758545,0.34866878390312195
1774159871936939800,23.439939697265626,0.254373699426651,-0.4607550799846649,0.3990001082420349
1774159871956929800,23.4599296875,0.34115174412727356,-0.38354071974754333,0.4482930898666382
1774159871976920600,23.479920654296876,0.4017826020717621,-0.23682212829589844,0.42950236797332764
1774159871996910600,23.49991064453125,0.4852284789085388,-0.2547082006931305,0.2839462459087372
1774159872016900600,23.519900634765627,0.4960574209690094,-0.20519337058067322,0.16277240216732025
1774159872036890600,23.539890625,0.49371010065078735,-0.2267170250415802,0.07218258082866669
1774159872056881700,23.559881591796874,0.442889541387558,-0.5072261691093445,-0.10734563320875168
1774159872076871700,23.57987158203125,0.4151652455329895,-0.95428466796875,-0.20562000572681427
1774159872096861700,23.59986181640625,0.4316107928752899,-0.787301778793335,0.008830242790281773
1774159872116852500,23.6198525390625,0.4397291839122772,-0.9607928991317749,-0.030833812430500984
1774159872136842800,23.6398427734375,0.4198835492134094,-0.9126514792442322,-0.04446333646774292
1774159872156832800,23.659832763671876,0.39544692635536194,-0.7353280782699585,0.033196303993463516
1774159872176822800,23.67982275390625,0.3424569368362427,-0.6223594546318054,0.027092071250081062
1774159872196813600,23.6998134765625,0.26176130771636963,-0.49400198459625244,-0.12473899871110916
1774159872216803600,23.719803466796876,0.20090381801128387,-0.37284547090530396,-0.4226500391960144
1774159872236793600,23.739793701171877,0.19117501378059387,-0.1438905894756317,-0.64018315076828
1774159872256783600,23.75978369140625,0.26715314388275146,-0.09932898730039597,-0.7075534462928772
1774159872276774700,23.779774658203124,0.31750205159187317,-0.14893008768558502,-0.6540899276733398
1774159872296765400,23.799765380859377,0.27091673016548157,0.0046120621263980865,-0.5298444032669067
1774159872316755200,23.819755126953126,0.16336148977279663,0.22445520758628845,-0.33935222029685974
1774159872336746500,23.83974658203125,0.09665064513683319,0.5634292960166931,-0.15962322056293488
1774159872356736500,23.859736572265625,-0.06239387020468712,0.7677637934684753,-0.029736589640378952
1774159872376726300,23.879726318359374,-0.2610214650630951,0.7516969442367554,0.1707776039838791
1774159872396716300,23.89971630859375,-0.4590967297554016,0.7868993878364563,0.36982280015945435
1774159872416707300,23.919707275390625,-0.6139957904815674,0.8812333345413208,0.5399649739265442
1774159872436697300,23.939697265625,-0.7041847705841064,1.0934231281280518,0.6014163494110107
1774159872456687400,23.959687255859375,-0.7458177208900452,1.2462619543075562,0.569717526435852
1774159872476677400,23.979677490234376,-0.7175930142402649,0.9904698133468628,0.3968901038169861
1774159872496668400,23.99966845703125,-0.6198970675468445,0.9806209206581116,0.23064438998699188
1774159872516658400,24.019658447265623,-0.5050317645072937,1.0789541006088257,0.23656220734119415
1774159872536648200,24.039648193359376,-0.37194958329200745,0.8525633215904236,0.18078681826591492
1774159872556639500,24.059639404296874,-0.26512381434440613,0.6342861652374268,0.18993239104747772
1774159872576629500,24.07962939453125,-0.2234615832567215,0.3581456243991852,0.2509233057498932
1774159872596619300,24.099619384765624,-0.21700501441955566,0.10366194695234299,0.26562580466270447
1774159872616609300,24.119609375,-0.22048310935497284,-0.11844062805175781,0.27162086963653564
1774159872636600300,24.139600341796875,-0.20153871178627014,-0.21762660145759583,0.20567725598812103
1774159872656590300,24.15959033203125,-0.1670214831829071,-0.23051336407661438,0.09625649452209473
1774159872676580400,24.179580322265625,-0.11874955147504807,-0.21181131899356842,-0.006411826703697443
1774159872696570400,24.1995703125,-0.0787384882569313,-0.23410703241825104,-0.08670533448457718
1774159872716561400,24.2195615234375,-0.05119580775499344,-0.3354605436325073,-0.175493523478508
1774159872736551200,24.23955126953125,-0.015674566850066185,-0.4580826163291931,-0.2867036759853363
1774159872756541200,24.259541259765626,0.0288779865950346,-0.5888816118240356,-0.4028475880622864
1774159872776532500,24.279532470703124,0.0960511639714241,-0.722143828868866,-0.5191020369529724
1774159872796522500,24.2995224609375,0.18653897941112518,-0.7988154292106628,-0.6535903215408325
1774159872816512300,24.31951220703125,0.29614749550819397,-0.8729621171951294,-0.7348710894584656
1774159872836502300,24.339502197265624,0.4372748136520386,-0.9371845126152039,-0.731108546257019
1774159872856493300,24.359493408203125,0.4450102150440216,-0.8645430207252502,-0.4669770300388336
1774159872876483300,24.3794833984375,0.45523756742477417,-1.1990478038787842,-0.08772426098585129
1774159872896473300,24.399473388671876,0.35206615924835205,-1.5525046586990356,0.04451233893632889
1774159872916463400,24.41946337890625,0.20159916579723358,-1.6945196390151978,-0.11200642585754395
1774159872936454400,24.439454345703126,0.29675817489624023,-1.5569417476654053,-0.24262116849422455
1774159872956444200,24.459444091796875,0.2575274109840393,-1.1134157180786133,-0.05835198983550072
1774159872976434200,24.47943408203125,0.21450670063495636,-0.966238796710968,-0.02496793307363987
1774159872996424400,24.499424560546874,0.29464495182037354,-0.8234810829162598,-0.16627179086208344
1774159873016415200,24.519415283203124,0.356438547372818,-0.6650134325027466,-0.16835758090019226
1774159873036405200,24.5394052734375,0.3861176073551178,-0.5720185041427612,-0.12251339852809906
1774159873056395300,24.559395263671874,0.38748034834861755,-0.5498918890953064,-0.04969804733991623
1774159873076386600,24.579386474609375,0.34918516874313354,-0.4847581684589386,0.0477006770670414
