time,seconds_elapsed,z,y,x
1774159848548248300,0.051248291015625,0.48228663206100464,-0.3108704686164856,0.33008357882499695
1774159848568238300,0.07123828125,0.5850028991699219,-0.26705455780029297,0.313447505235672
1774159848588229400,0.0912294921875,0.5141116976737976,-0.43621018528938293,0.49982571601867676
1774159848608219400,0.111219482421875,0.41357943415641785,-0.4399845600128174,0.8232837915420532
1774159848628210400,0.13121044921875,0.39391401410102844,-0.2949828505516052,0.9611995220184326
1774159848648200200,0.1512001953125,0.36740410327911377,-0.13725526630878448,0.9698806405067444
1774159848668191500,0.17119140625,0.4310273826122284,-0.7064998149871826,0.9587558507919312
1774159848688181500,0.191181396484375,0.6940044164657593,-0.9704627394676208,0.8003066778182983
1774159848708172300,0.21117236328125,1.2578973770141602,-0.6066877245903015,0.5722064971923828
1774159848728162300,0.231162353515625,1.3735636472702026,0.13286864757537842,0.48687395453453064
1774159848748153300,0.2511533203125,0.947003185749054,0.7046524286270142,0.35359030961990356
1774159848768143400,0.271143310546875,0.31468310952186584,0.7039297223091125,0.18122385442256927
1774159848788134400,0.291134521484375,0.3299454152584076,0.03642899915575981,-0.2353043556213379
1774159848808124400,0.31112451171875,0.6582564115524292,-0.37890222668647766,-0.4177207052707672
1774159848828115500,0.331115478515625,0.9816673994064331,0.024214617908000946,-0.45561298727989197
1774159848848105500,0.35110546875,0.8895254731178284,0.16830411553382874,-0.33041635155677795
1774159848868096300,0.37109619140625,0.5911957025527954,-0.01380003709346056,-0.19873803853988647
1774159848888086300,0.391086181640625,0.5872078537940979,-0.3883982002735138,0.13623203337192535
1774159848908077300,0.411077392578125,0.6027511358261108,-0.5447834730148315,0.42814087867736816
1774159848928067300,0.4310673828125,0.5686030983924866,-0.3714603781700134,0.5399909615516663
1774159848948058400,0.451058349609375,0.5116280913352966,-0.15270349383354187,0.5252655148506165
1774159848968048400,0.47104833984375,0.5391894578933716,-0.1223529726266861,0.3884398937225342
1774159848988039200,0.4910390625,0.5625184774398804,-0.11384312063455582,0.16080422699451447
1774159849008029400,0.511029541015625,0.5289003252983093,-0.19230088591575623,0.04942655563354492
1774159849028020500,0.5310205078125,0.4120329022407532,-0.14027246832847595,0.12059245258569717
1774159849048010200,0.55101025390625,0.3025454878807068,-0.11056897789239883,0.1682412475347519
1774159849068001300,0.571001220703125,0.19119523465633392,-0.21139098703861237,0.13444578647613525
1774159849087991300,0.5909912109375,0.19338510930538177,-0.14805923402309418,0.14004993438720703
1774159849107982300,0.610982421875,0.19508284330368042,-0.12433911114931107,0.16978757083415985
1774159849127972400,0.630972412109375,0.08336329460144043,-0.22062934935092926,0.11286244541406631
1774159849147963400,0.65096337890625,-0.07963836938142776,-0.24378490447998047,0.031153663992881775
1774159849167953200,0.670953125,-0.15551996231079102,-0.10297771543264389,-0.010952597483992577
1774159849187944400,0.6909443359375,-0.023216910660266876,0.12997940182685852,0.04978325963020325
1774159849207934500,0.7109345703125,0.054310403764247894,0.01703852228820324,0.09557343274354935
1774159849227925200,0.73092529296875,0.04961177334189415,-0.06509578227996826,0.10762035101652145
1774159849247915300,0.750915283203125,0.17862500250339508,-0.0677124410867691,0.19941076636314392
1774159849267906300,0.77090625,0.21467077732086182,-0.3168952465057373,0.37296348810195923
1774159849287896300,0.790896240234375,0.1585724651813507,-0.5388676524162292,0.5423009395599365
1774159849307887600,0.8108876953125,0.058074239641427994,-0.23882900178432465,0.2192440927028656
1774159849327877600,0.830877685546875,0.044529989361763,0.2497728168964386,0.13245521485805511
1774159849347868400,0.850868408203125,0.09297920018434525,0.39275220036506653,0.20909219980239868
1774159849367858400,0.8708583984375,0.17895366251468658,0.46062153577804565,0.19317342340946198
1774159849387849500,0.890849365234375,0.2231290191411972,0.13497565686702728,0.25580111145973206
1774159849407839500,0.910839599609375,0.11522252857685089,-0.20802350342273712,0.23562660813331604
1774159849427830500,0.93083056640625,0.23785625398159027,-0.08827114850282669,0.10616440325975418
1774159849447820500,0.950820556640625,0.4801032245159149,0.2514374256134033,-0.03651152178645134
1774159849467811600,0.9708115234375,0.8059953451156616,0.12971152365207672,0.038896217942237854
1774159849487801600,0.990801513671875,1.3122470378875732,-0.17564773559570312,0.30695176124572754
1774159849507792400,1.01079248046875,1.641619324684143,-0.6415162086486816,0.39393430948257446
1774159849527782400,1.030782470703125,1.6780312061309814,-0.9227636456489563,0.28809040784835815
1774159849547773400,1.0507734375,2.0848617553710938,-0.19642305374145508,0.36664482951164246
1774159849567763500,1.070763427734375,2.649263381958008,0.23540057241916656,0.11686515063047409
1774159849587754500,1.09075439453125,2.3009960651397705,0.6410660743713379,-0.4111959636211395
1774159849607744500,1.11074462890625,1.2661129236221313,-0.010570742189884186,-0.385433554649353
1774159849627735300,1.1307353515625,1.3496266603469849,-0.32391613721847534,-0.1502215713262558
1774159849647725600,1.1507255859375,1.4633166790008545,0.044388920068740845,-0.10807662457227707
1774159849667716600,1.170716552734375,1.227624535560608,0.09989862143993378,-0.21620574593544006
1774159849687706400,1.190706298828125,0.8238563537597656,0.45904824137687683,-0.29679030179977417
1774159849707697400,1.210697509765625,0.18259677290916443,0.40387773513793945,-0.37790313363075256
1774159849727687400,1.2306875,-0.4307730495929718,0.005373133346438408,-0.4509432017803192
1774159849747678500,1.250678466796875,-0.4612089991569519,-0.40957769751548767,-0.6271953582763672
1774159849767668500,1.27066845703125,-0.1745494157075882,-1.1649775505065918,-0.9100063443183899
1774159849787659500,1.290659423828125,0.2740039527416229,-1.679653286933899,-1.2135248184204102
1774159849807649300,1.310649169921875,0.8309767842292786,-1.8396275043487549,-1.8618385791778564
1774159849827639600,1.3306396484375,1.3270390033721924,-1.374279499053955,-2.732208728790283
1774159849847630600,1.350630615234375,1.814034342765808,-0.0858253613114357,-2.963193655014038
1774159849867620400,1.370620361328125,2.1199207305908203,0.965195894241333,-2.281705856323242
1774159849887611400,1.390611328125,1.711106300354004,1.3761672973632812,-1.0384138822555542
1774159849907601400,1.410601318359375,0.8807834982872009,1.4513651132583618,0.008450841531157494
1774159849927592400,1.430592529296875,-0.071025550365448,1.4610251188278198,0.23740321397781372
1774159849947582500,1.45058251953125,-0.9111012816429138,1.5241471529006958,-0.12246216833591461
1774159849967573500,1.470573486328125,-0.9815091490745544,2.0691030025482178,-0.7263293266296387
1774159849987563300,1.490563232421875,-0.7244774103164673,2.3598413467407227,-1.0393744707107544
1774159850007554600,1.510554443359375,-0.6467140913009644,2.072262763977051,-0.895082950592041
1774159850027544600,1.530544677734375,-0.7103692889213562,1.4334886074066162,-0.47468382120132446
1774159850047535400,1.550535400390625,-0.6832497119903564,1.2600114345550537,-0.10857191681861877
1774159850067525400,1.570525390625,-0.5487619638442993,1.3108668327331543,-0.10553884506225586
1774159850087516700,1.5905166015625,-0.3366214632987976,1.4553073644638062,-0.30184248089790344
1774159850107506400,1.61050634765625,-0.07694566994905472,1.4288365840911865,-0.44895851612091064
1774159850127497500,1.63049755859375,0.024853017181158066,1.452394962310791,-0.47335872054100037
1774159850147487500,1.650487548828125,0.024302830919623375,1.448225498199463,-0.24017800390720367
1774159850167478500,1.670478515625,0.04853282868862152,1.1244288682937622,0.23292167484760284
1774159850187468500,1.690468505859375,0.09232509881258011,0.6103603839874268,0.6609528064727783
1774159850207459300,1.710459228515625,0.516007661819458,0.05476667732000351,0.8914564251899719
1774159850227449300,1.730449462890625,1.0066502094268799,-0.3854260742664337,1.091681718826294
1774159850247440600,1.750440673828125,1.3545998334884644,-1.8112598657608032,1.2076506614685059
1774159850267430700,1.7704306640625,1.834674596786499,-2.507601499557495,1.0242371559143066
1774159850287420700,1.790420654296875,2.4481284618377686,-2.8284263610839844,0.8470720052719116
1774159850307411700,1.81041162109375,2.548830509185791,-3.612977981567383,0.8497377634048462
1774159850327401700,1.830401611328125,2.43536639213562,-4.7972211837768555,1.4365025758743286
1774159850347392800,1.850392822265625,1.9370697736740112,-5.157148361206055,2.1270763874053955
1774159850367382800,1.8703828125,1.1166579723358154,-4.887547969818115,1.9208229780197144
1774159850387373600,1.89037353515625,0.9569854140281677,-3.4277212619781494,1.135534405708313
1774159850407363600,1.910363525390625,1.57618248462677,-1.2112613916397095,1.0653865337371826
1774159850427355000,1.93035498046875,2.34555983543396,-0.06537355482578278,1.3316056728363037
1774159850447345000,1.950344970703125,2.7918176651000977,-0.12427795678377151,1.8399739265441895
1774159850467335700,1.970335693359375,2.9390151500701904,-0.1949387639760971,2.5180773735046387
1774159850487325700,1.99032568359375,3.198070526123047,0.2606600224971771,2.6002726554870605
1774159850507316700,2.010316650390625,3.8593592643737793,1.4045813083648682,2.4002368450164795
1774159850527306800,2.030306640625,3.940655469894409,1.454897165298462,1.443572998046875
1774159850547297800,2.0502978515625,3.2830660343170166,0.978455662727356,-0.6706640124320984
1774159850567287800,2.070287841796875,2.243112564086914,0.46141210198402405,-1.2509256601333618
1774159850587278600,2.090278564453125,1.4857112169265747,-1.3855998516082764,-0.7935279607772827
1774159850607268900,2.110268798828125,1.3098053932189941,-1.5973700284957886,-0.43012353777885437
1774159850627259600,2.130259765625,1.1528276205062866,-1.213127851486206,-0.38954153656959534
1774159850647249700,2.150249755859375,1.1383264064788818,-0.8587024211883545,-0.12395742535591125
1774159850667240700,2.17024072265625,1.3204882144927979,-0.6286036968231201,-0.015901867300271988
1774159850687230700,2.190230712890625,1.481273889541626,-1.0983117818832397,-0.4840419292449951
1774159850707221800,2.2102216796875,2.0316355228424072,-2.225015878677368,-1.199101448059082
1774159850727211800,2.230211669921875,1.9531282186508179,-2.669344425201416,-1.5056852102279663
1774159850747201800,2.250201904296875,1.556153416633606,-2.0786237716674805,0.4369933009147644
1774159850767192600,2.270192626953125,0.7704663276672363,-0.5855616331100464,-0.25567498803138733
1774159850787182800,2.290182861328125,0.578001856803894,0.018122205510735512,-0.3524203300476074
1774159850807173600,2.310173583984375,0.7390245795249939,-0.4868144392967224,-0.17480836808681488
1774159850827163600,2.33016357421875,0.9551457166671753,-1.125543475151062,-0.3065960705280304
1774159850847154700,2.35015478515625,1.4773684740066528,-1.4315739870071411,-0.6692076325416565
1774159850867144700,2.370144775390625,1.7981157302856445,-1.2583575248718262,-0.863375186920166
1774159850887135700,2.3901357421875,1.6785913705825806,-1.625146508216858,-0.6978438496589661
1774159850907125800,2.410125732421875,1.6631063222885132,-1.335883617401123,-0.7639245390892029
1774159850927116500,2.430116455078125,2.4198098182678223,-1.931787133216858,-0.6732934713363647
1774159850947106800,2.45010693359375,2.831719398498535,-1.6287728548049927,-0.8700746297836304
1774159850967097900,2.470097900390625,2.496598482131958,-1.7138556241989136,0.1384180188179016
1774159850987087600,2.490087646484375,2.0948290824890137,-0.7828447222709656,0.07322277128696442
1774159851007078700,2.51007861328125,1.7921525239944458,-0.8194842338562012,-0.030651159584522247
1774159851027068700,2.530068603515625,1.626271367073059,-0.9415832161903381,-0.07007824629545212
1774159851047059700,2.550059814453125,1.5251994132995605,-0.36683622002601624,0.012015841901302338
1774159851067049700,2.5700498046875,1.209304928779602,0.10389835387468338,0.3006744086742401
1774159851087039700,2.590039794921875,0.8816379904747009,0.0022937231697142124,0.25938650965690613
1774159851107030500,2.610030517578125,0.6258538961410522,-0.054505378007888794,0.26737838983535767
1774159851127020800,2.630020751953125,0.3964483439922333,0.047210246324539185,0.05924186110496521
1774159851147011800,2.65001171875,0.2672507166862488,0.5315948128700256,0.05098983645439148
1774159851167001600,2.670001708984375,0.271766722202301,0.8652054667472839,0.1793660670518875
1774159851186992600,2.68999267578125,0.3467889428138733,0.8286744356155396,0.10007695853710175
1774159851206982700,2.709982666015625,0.32020989060401917,-0.20936885476112366,-0.4336446225643158
1774159851226973700,2.7299736328125,0.5055469274520874,-0.13097433745861053,-1.2417798042297363
1774159851246963700,2.749963623046875,1.1565930843353271,-0.4095474183559418,-0.8307411670684814
1774159851266955000,2.769955078125,1.4507383108139038,0.6537408232688904,-0.8788613677024841
1774159851286944800,2.78994482421875,1.463137149810791,0.5984395146369934,-0.991688072681427
1774159851306934800,2.809934814453125,1.260378122329712,0.758039116859436,-0.9276406764984131
1774159851326926000,2.829926025390625,0.9165105819702148,0.5743067264556885,-0.1253661960363388
1774159851346915800,2.849915771484375,0.761105477809906,0.8487164378166199,-0.29891738295555115
1774159851366907000,2.869906982421875,0.82476806640625,1.173432469367981,-0.28469669818878174
1774159851386897000,2.88989697265625,0.9439624547958374,1.2696120738983154,0.07030737400054932
1774159851406887700,2.9098876953125,0.4094800353050232,0.9412901997566223,0.6137053966522217
1774159851426878000,2.9298779296875,-0.3935719132423401,0.7002918124198914,0.9585772156715393
1774159851446869000,2.949868896484375,-1.011719822883606,0.8851221203804016,1.5030755996704102
1774159851466858800,2.969858642578125,-0.68906170129776,1.1390570402145386,1.5925960540771484
1774159851486848800,2.989848876953125,0.610634982585907,1.2089817523956299,0.6082355380058289
1774159851506840000,3.009840087890625,2.927272319793701,1.8143198490142822,-0.17936699092388153
1774159851526830000,3.029830078125,4.512407302856445,0.15018586814403534,-0.36900794506073
1774159851546820900,3.04982080078125,4.485140323638916,0.2667385935783386,-1.241362452507019
1774159851566811000,3.069810791015625,3.1397154331207275,0.6295090913772583,-1.9847913980484009
1774159851586802000,3.089802001953125,1.6875417232513428,-0.13305024802684784,-1.1656757593154907
1774159851606792000,3.1097919921875,0.5840296149253845,-1.1208066940307617,-0.25285783410072327
1774159851626783000,3.129782958984375,0.38748010993003845,-1.0636675357818604,-0.3525458872318268
1774159851646772700,3.149772705078125,0.34175965189933777,-0.23665373027324677,-0.9528512358665466
1774159851666762800,3.1697626953125,0.5297929048538208,0.27688345313072205,-0.931242048740387
1774159851686754000,3.189754150390625,0.34280645847320557,-0.4371713101863861,-0.4786665737628937
1774159851706744000,3.209744140625,0.1957777738571167,-1.9843018054962158,-0.289895623922348
1774159851726734800,3.22973486328125,0.006750950124114752,-1.1984217166900635,-0.1389693319797516
1774159851746724900,3.249724853515625,0.03669648990035057,-1.999908685684204,-1.2095273733139038
1774159851766716000,3.2697158203125,0.2840326130390167,-0.7613991498947144,-0.8985395431518555
1774159851786706000,3.289705810546875,-0.012796696275472641,-1.0481244325637817,-0.47776082158088684
1774159851806697000,3.309697021484375,-0.2621702253818512,-1.1970431804656982,-0.07123751193284988
1774159851826687000,3.32968701171875,-0.2639128267765045,-0.4749331474304199,0.14478184282779694
1774159851846676700,3.3496767578125,0.14889249205589294,-0.03822633624076843,0.19574102759361267
1774159851866668000,3.36966796875,0.21549516916275024,0.6842747330665588,0.023614071309566498
1774159851886658000,3.389657958984375,-0.10238005965948105,1.1009740829467773,-0.21120546758174896
1774159851906648800,3.40964892578125,-0.08297708630561829,0.9415099024772644,-0.509707510471344
1774159851926638800,3.429638916015625,-0.0282563716173172,0.974303662776947,-0.6245900988578796
1774159851946630000,3.4496298828125,-0.18741030991077423,0.46674010157585144,-0.27718040347099304
1774159851966620000,3.469619873046875,-0.4705701172351837,0.6344543099403381,-0.3878403604030609
1774159851986610000,3.48960986328125,-0.4577725827693939,0.6764344573020935,-0.4025770127773285
1774159852006601000,3.50960107421875,-0.1718093901872635,0.7144920825958252,-0.4138418436050415
1774159852026590700,3.5295908203125,-0.16122251749038696,0.5585656762123108,-0.6358280181884766
1774159852046582000,3.54958203125,-0.06212660297751427,-0.05407863110303879,-0.1633492261171341
1774159852066572000,3.569572021484375,0.05131654813885689,0.0041688354685902596,0.12216036021709442
1774159852086562800,3.589562744140625,0.1539112776517868,0.17102016508579254,-0.09943831712007523
1774159852106552800,3.609552734375,0.3281337320804596,-1.779378890991211,0.65848708152771
1774159852126542800,3.62954296875,0.29581108689308167,0.30573368072509766,0.6068321466445923
1774159852146534000,3.649533935546875,0.2206478714942932,0.12748374044895172,-0.20392616093158722
1774159852166524000,3.66952392578125,0.22002486884593964,-0.25882524251937866,0.32308176159858704
1774159852186515000,3.689514892578125,0.3728940188884735,0.48710453510284424,0.029437730088829994
1774159852206504700,3.709504638671875,0.2620615065097809,-0.01632346399128437,0.05635301023721695
1774159852226496000,3.72949609375,0.3865274488925934,-0.0744657889008522,0.23474307358264923
1774159852246486000,3.749486083984375,0.65556800365448,-0.2067408710718155,0.25077301263809204
1774159852266476000,3.76947607421875,0.7189501523971558,-0.3090510368347168,0.28771883249282837
1774159852286467000,3.789467041015625,0.6579506397247314,-0.26194971799850464,0.3548482358455658
1774159852306457000,3.80945703125,0.39258328080177307,-0.3574424088001251,0.3355350196361542
1774159852326448000,3.8294482421875,0.3200085163116455,-0.3202754259109497,0.1375400424003601
1774159852346438100,3.849438232421875,0.3403235673904419,-0.03489949181675911,-0.12460857629776001
1774159852366429200,3.86942919921875,0.13498865067958832,-0.21489779651165009,-0.15679055452346802
1774159852386419000,3.8894189453125,0.8784856796264648,-1.1653971672058105,0.049103714525699615
1774159852406410200,3.90941015625,0.879783570766449,-0.5464339852333069,0.0592682771384716
1774159852426400300,3.929400146484375,0.9699130654335022,0.06995486468076706,-0.2453145980834961
1774159852446390300,3.949390380859375,0.4984324872493744,-0.06745489686727524,-0.33684566617012024
1774159852466381000,3.969381103515625,0.4556187391281128,-0.5882522463798523,-0.12449286878108978
1774159852486371000,3.98937109375,0.3917510509490967,-1.111554503440857,0.13010407984256744
1774159852506362000,4.009362060546875,0.2084190994501114,-1.141658067703247,-0.03762968257069588
1774159852526352100,4.02935205078125,0.08177787810564041,-1.6942920684814453,-0.04133548587560654
1774159852546342100,4.049342041015625,0.17425788938999176,-1.916030764579773,0.03404456004500389
1774159852566333000,4.0693330078125,0.03138250857591629,-1.9246413707733154,-0.019396936520934105
1774159852586323000,4.089322998046875,-0.22059139609336853,-1.9544636011123657,0.22097428143024445
1774159852606314200,4.109314208984375,-0.37907499074935913,-2.21630859375,0.6405022740364075
1774159852626304300,4.12930419921875,-0.06079426407814026,-1.7341216802597046,0.7111476063728333
1774159852646295000,4.149294921875,0.1817864626646042,-1.0900909900665283,0.7850283980369568
1774159852666285000,4.16928515625,0.30132806301116943,-0.9456964731216431,0.6308445930480957
1774159852686275300,4.189275390625,0.3497789204120636,-0.7545688152313232,0.46720466017723083
1774159852706266000,4.20926611328125,0.21360273659229279,-0.7434684634208679,0.14311061799526215
1774159852726256000,4.229256103515625,0.13975268602371216,-0.6165074706077576,0.007740461733192205
1774159852746247200,4.2492470703125,0.09825693070888519,-0.2576128840446472,-0.2985769808292389
1774159852766237000,4.26923681640625,-0.05341700091958046,0.8401045799255371,-1.0900602340698242
1774159852786228200,4.289228271484375,-0.39365360140800476,1.699483871459961,-1.8831394910812378
1774159852806218200,4.30921826171875,-0.9028838276863098,1.385582447052002,-2.098334550857544
1774159852826208000,4.3292080078125,-1.0102431774139404,0.6659994125366211,-1.2109708786010742
1774159852846199000,4.349198974609375,-0.7524550557136536,0.25165441632270813,-0.5908247828483582
1774159852866189300,4.369189208984375,-0.35409384965896606,-0.7822938561439514,-0.5644484758377075
1774159852886180000,4.38918017578125,-1.0026386976242065,-0.5768238306045532,-0.2013101875782013
1774159852906170000,4.409170166015625,-0.26775452494621277,-0.4998154044151306,-0.16969791054725647
1774159852926161200,4.4291611328125,0.3256007134914398,-0.14658202230930328,-0.29504719376564026
1774159852946151000,4.44915087890625,1.0094953775405884,-0.19477543234825134,-0.4336572289466858
1774159852966141200,4.46914111328125,0.8509773015975952,-0.5338068604469299,-0.23625288903713226
1774159852986132200,4.48913232421875,0.46770307421684265,-1.1158506870269775,-0.24383285641670227
1774159853006122200,4.509122314453125,0.31406456232070923,-1.1292469501495361,-0.427266001701355
1774159853026113000,4.529113037109375,0.2509765923023224,-0.7094923853874207,-0.8138399720191956
1774159853046103300,4.549103271484375,-0.34667813777923584,-1.851475715637207,-0.34918004274368286
1774159853066093300,4.56909326171875,-1.0260083675384521,-4.531856060028076,1.0419683456420898
1774159853086084000,4.589083984375,-0.2369522601366043,-2.9283835887908936,0.3818099796772003
1774159853106074000,4.60907421875,-0.14920128881931305,-1.2080177068710327,0.3249225914478302
1774159853126065200,4.629065185546875,-0.2991196811199188,-0.2733539342880249,0.5360985994338989
1774159853146055200,4.64905517578125,-0.44806113839149475,0.5569213628768921,0.768435537815094
1774159853166046200,4.669046142578125,-0.4613819122314453,0.3002985119819641,0.7112734913825989
1774159853186036200,4.6890361328125,-0.7029796242713928,-0.024847064167261124,0.6593515872955322
1774159853206026000,4.70902587890625,-0.4551962912082672,-0.18159666657447815,0.03783205524086952
1774159853226017300,4.729017333984375,0.3123612701892853,-0.16370199620723724,-0.6486376523971558
1774159853246007300,4.74900732421875,0.6082366108894348,-0.4751162528991699,-0.7197636365890503
1774159853265998000,4.768998046875,-0.22936764359474182,-1.4986993074417114,-0.27664241194725037
1774159853285988000,4.788988037109375,-0.9166095852851868,-1.7147223949432373,0.34063324332237244
1774159853305979100,4.808979248046875,-0.7027086615562439,-0.653744637966156,-0.29569607973098755
1774159853325969200,4.82896923828125,-0.5776098370552063,-0.24242572486400604,-0.2085527926683426
1774159853345959200,4.848959228515625,-0.42914941906929016,0.3604174852371216,-0.031132688745856285
1774159853365950200,4.8689501953125,-0.2858074903488159,0.5572167038917542,0.14821591973304749
1774159853385940000,4.88893994140625,-0.14394642412662506,0.9375429153442383,-0.029672224074602127
1774159853405931300,4.90893115234375,-0.021417226642370224,0.7388396263122559,-0.08185794949531555
1774159853425921300,4.92892138671875,0.18654321134090424,0.08752959221601486,-0.1055084839463234
1774159853445911300,4.948911376953125,0.4100160300731659,-0.4064273536205292,0.17264211177825928
1774159853465902000,4.968902099609375,0.3373408317565918,-1.019944190979004,1.0891751050949097
1774159853485892000,4.98889208984375,0.1108415350317955,-1.7090632915496826,1.3021221160888672
1774159853505883100,5.008883056640625,0.1385270208120346,-1.007205605506897,0.9374563694000244
1774159853525873200,5.028873046875,0.29466134309768677,0.9357480406761169,-0.12221616506576538
1774159853545864200,5.0488642578125,0.028423577547073364,0.7347875833511353,-0.2324472963809967
1774159853565854000,5.06885400390625,-0.2708193361759186,0.71006178855896,0.027919773012399673
1774159853585844000,5.088843994140625,-0.32599326968193054,0.829721212387085,0.23401519656181335
1774159853605835300,5.108835205078125,-0.0530579537153244,0.7282809615135193,0.19926005601882935
1774159853625825300,5.1288251953125,-0.25263723731040955,0.9236550331115723,0.014029238373041153
1774159853645816000,5.148816162109375,-0.4208833873271942,0.5653358101844788,-0.5545659065246582
1774159853665806000,5.16880615234375,-0.5715730786323547,-0.6276498436927795,-0.5996792316436768
1774159853685796000,5.188796142578125,0.12295582890510559,-0.8647617101669312,-0.4197010099887848
1774159853705787100,5.208787109375,0.1053706556558609,-0.2873145341873169,0.34444600343704224
1774159853725777200,5.228777099609375,0.14304284751415253,-0.5490874648094177,0.15948468446731567
1774159853745768200,5.248768310546875,-0.014432566240429878,-1.6056804656982422,-0.2403353750705719
1774159853765758000,5.268758056640625,0.15657296776771545,0.0898878276348114,-0.24396875500679016
1774159853785748200,5.288748291015625,0.18396037817001343,2.1757609844207764,-1.5246994495391846
1774159853805739300,5.3087392578125,-0.37675192952156067,2.449301242828369,-2.2687554359436035
1774159853825729000,5.32872900390625,-0.38257113099098206,0.9115003347396851,-1.409338355064392
1774159853845720000,5.348719970703125,-0.042249687016010284,0.5041921138763428,-0.4380648732185364
1774159853865710000,5.3687099609375,0.02670525759458542,1.0783870220184326,-0.20540939271450043
1774159853885700400,5.388700439453125,-0.267160564661026,1.2973995208740234,0.07550694793462753
1774159853905691100,5.408691162109375,-0.2153007686138153,1.188873052597046,-0.1850089728832245
1774159853925681200,5.42868115234375,-0.228036031126976,-0.35152798891067505,-0.8316551446914673
1774159853945672000,5.448671875,-0.22417351603507996,-0.42464032769203186,-0.756458044052124
1774159853965662200,5.468662109375,0.011529328301548958,0.12908342480659485,-0.4317323863506317
1774159853985652200,5.48865234375,0.31227898597717285,0.15459449589252472,0.11661263555288315
1774159854005643000,5.50864306640625,0.3041507303714752,-0.7341396808624268,0.5984832644462585
1774159854025633000,5.528633056640625,0.21540355682373047,-1.603415608406067,0.7662405371665955
1774159854045624000,5.5486240234375,0.13096392154693604,-1.8867703676223755,0.8453548550605774
1774159854065614300,5.5686142578125,0.11236065626144409,-1.578191876411438,1.0313769578933716
1774159854085604000,5.58860400390625,0.11611047387123108,-1.6504900455474854,1.515703558921814
1774159854105595100,5.60859521484375,0.5190296173095703,0.7806462049484253,-0.08802474290132523
1774159854125585200,5.628585205078125,0.22341419756412506,1.1337146759033203,-0.10868659615516663
1774159854145576200,5.648576171875,-0.01377194095402956,1.333874225616455,0.1337420493364334
1774159854165566200,5.668566162109375,0.07434043288230896,1.7378637790679932,0.8523094058036804
1774159854185557200,5.68855712890625,0.4222166836261749,1.6971569061279297,1.295190453529358
1774159854205547000,5.708547119140625,0.20673486590385437,1.776251196861267,1.8821686506271362
1774159854225537000,5.728537109375,-0.050819218158721924,2.374547243118286,1.219090461730957
1774159854245528300,5.7485283203125,-0.026012811809778214,2.7536709308624268,0.9749946594238281
1774159854265518300,5.768518310546875,0.17256620526313782,2.4674465656280518,0.9761959910392761
1774159854285509400,5.78850927734375,-0.32076871395111084,2.021953821182251,0.6690511107444763
1774159854305499400,5.80849951171875,-0.4934905469417572,0.6532143950462341,0.5615823268890381
1774159854325489400,5.828489501953125,-0.35034504532814026,-2.5985515117645264,0.2125573754310608
1774159854345480400,5.84848046875,-0.39975205063819885,-3.983268976211548,-0.4513256847858429
1774159854365470500,5.868470458984375,-0.20839636027812958,-2.169253349304199,-1.3423436880111694
1774159854385460500,5.88846044921875,-0.3005264401435852,-2.506014347076416,-3.2910447120666504
1774159854405451300,5.908451171875,-0.5686646103858948,-2.5003345012664795,-4.935523986816406
1774159854425441500,5.928441650390625,-0.3458184599876404,-4.641393661499023,-3.706298589706421
1774159854445432300,5.948432373046875,-0.357209175825119,-4.074716567993164,-0.322744220495224
1774159854465422300,5.96842236328125,0.18535569310188293,-1.924261212348938,1.6475621461868286
1774159854485412400,5.988412353515625,-0.3973844647407532,-0.871404230594635,0.5010281801223755
1774159854505403400,6.0084033203125,-0.6431191563606262,-0.25724104046821594,-0.39085036516189575
1774159854525393400,6.028393310546875,-0.26477089524269104,-0.3160865902900696,-0.31540146470069885
1774159854545384400,6.048384521484375,-0.0194406658411026,-0.6611075401306152,-0.024930428713560104
1774159854565374500,6.06837451171875,0.028184877708554268,-1.7920525074005127,0.25155794620513916
1774159854585364200,6.0883642578125,0.012502957135438919,-1.6766892671585083,0.7404118180274963
1774159854605355500,6.10835546875,0.030262881889939308,-0.9336612224578857,1.11603581905365
1774159854625345500,6.128345458984375,0.29572197794914246,-0.8304709196090698,1.1243170499801636
1774159854645336300,6.14833642578125,0.44915056228637695,-1.7578706741333008,0.6758290529251099
1774159854665326300,6.168326416015625,0.3874475359916687,-1.2101672887802124,0.6454726457595825
1774159854685316400,6.18831640625,0.39255717396736145,0.04074068367481232,0.7340320348739624
1774159854705307400,6.208307373046875,0.3911147117614746,0.810094952583313,0.39946475625038147
1774159854725297400,6.22829736328125,0.23901982605457306,1.2981280088424683,0.15974952280521393
1774159854745288400,6.248288330078125,0.15156710147857666,1.4617104530334473,0.10398982465267181
1774159854765278500,6.268278564453125,0.08368445932865143,0.9175497889518738,-0.07764414697885513
1774159854785268200,6.288268310546875,0.0804903581738472,0.255409300327301,0.2993565499782562
1774159854805259500,6.308259521484375,0.11299674957990646,-0.1422363817691803,0.6423654556274414
1774159854825249500,6.32824951171875,0.06423492729663849,-0.5084290504455566,0.4092443585395813
1774159854845239300,6.3482392578125,-0.00538457790389657,-0.8227106332778931,0.09866895526647568
1774159854865230300,6.368230224609375,-0.05862472578883171,-0.9350899457931519,-0.015509087592363358
1774159854885220400,6.388220458984375,-0.008020471781492233,-0.8236457705497742,0.07374553382396698
1774159854905211400,6.40821142578125,0.15011465549468994,-0.4845524728298187,0.0942874327301979
1774159854925201400,6.428201416015625,0.1931355744600296,-0.08170102536678314,-0.11240468174219131
1774159854945191400,6.44819140625,0.1538027822971344,0.30064043402671814,-0.35227304697036743
1774159854965182200,6.46818212890625,0.09755325317382812,0.3016570508480072,-0.5209112167358398
1774159854985172200,6.488172119140625,-0.03378186374902725,-0.4116954207420349,-0.6812406778335571
1774159855005163500,6.50816357421875,0.06708682328462601,-1.0936864614486694,-0.27329716086387634
1774159855025153300,6.5281533203125,0.2590481638908386,-0.771160900592804,-0.007587921340018511
1774159855045143300,6.548143310546875,0.3216639757156372,0.16440936923027039,-0.24985410273075104
1774159855065134300,6.56813427734375,0.3762538433074951,0.6455157995223999,-0.3530820906162262
1774159855085124600,6.58812451171875,0.29103121161460876,0.41158294677734375,-0.3496675193309784
1774159855105114400,6.6081142578125,0.14456458389759064,-0.2727886736392975,-0.4386228621006012
1774159855125105400,6.62810546875,0.2147807478904724,-0.8425835967063904,-0.16643588244915009
1774159855145095400,6.648095458984375,0.28689852356910706,-0.8043655157089233,0.06356026977300644
1774159855165086200,6.668086181640625,0.21248306334018707,-0.21094976365566254,0.09877809882164001
1774159855185076500,6.688076416015625,-0.017252586781978607,0.06133970618247986,0.09996967762708664
1774159855205066500,6.70806640625,-0.26243436336517334,-0.15178880095481873,0.04081624001264572
1774159855225057300,6.728057373046875,-0.5021403431892395,-0.8507368564605713,0.08573848009109497
1774159855245047300,6.74804736328125,-0.5639915466308594,-1.1082298755645752,0.12995973229408264
1774159855265037600,6.76803759765625,-0.4320053160190582,-1.124814748764038,0.07684475928544998
1774159855285027600,6.788027587890625,-0.22040876746177673,-0.8372049927711487,0.07613377273082733
1774159855305017600,6.808017578125,-0.1999705582857132,-0.945252001285553,0.0036235610023140907
1774159855325008600,6.828008544921875,-0.2657254934310913,-1.1346549987792969,0.029931366443634033
1774159855344998700,6.84799853515625,-0.2909212112426758,-1.0907540321350098,0.15437211096286774
1774159855364988700,6.86798876953125,-0.28712812066078186,-0.9024906754493713,0.14269234240055084
1774159855384979500,6.8879794921875,-0.2059231549501419,-0.8595001697540283,0.11353454738855362
1774159855404969700,6.9079697265625,-0.14647150039672852,-0.8822535276412964,0.131817027926445
1774159855424960500,6.92796044921875,-0.16301026940345764,-0.6353785395622253,0.11120186746120453
1774159855444950500,6.947950439453125,-0.20653489232063293,-0.4643744230270386,0.07217639684677124
1774159855464940500,6.9679404296875,-0.23874449729919434,-0.41931161284446716,0.012474452145397663
1774159855484931600,6.987931640625,-0.22772879898548126,-0.3877072036266327,0.044234976172447205
1774159855504921600,7.007921630859375,-0.2739805579185486,-0.4380190074443817,0.03749048709869385
1774159855524911600,7.02791162109375,-0.25674039125442505,-0.4122272729873657,-0.05748565122485161
1774159855544902700,7.047902587890625,-0.29885879158973694,-0.1902860552072525,-0.1542251855134964
1774159855564892400,7.067892333984375,-0.2631654441356659,-0.2837708592414856,-0.15377555787563324
1774159855584882400,7.08788232421875,-0.13833141326904297,-0.3145044147968292,-0.14086662232875824
1774159855604873700,7.107873779296875,-0.008283449336886406,-0.36548933386802673,-0.18591248989105225
1774159855624863700,7.12786376953125,0.10154887288808823,-0.3758770823478699,-0.2164677083492279
1774159855644854500,7.1478544921875,0.21669094264507294,-0.23219573497772217,-0.2378445267677307
1774159855664844500,7.167844482421875,0.22863627970218658,-0.08317752927541733,-0.3895736634731293
1774159855684834600,7.18783447265625,0.16124975681304932,0.17228829860687256,-0.341871440410614
1774159855704825600,7.20782568359375,0.03767809271812439,0.27334025502204895,-0.31548500061035156
1774159855724815600,7.227815673828125,-0.26784029603004456,0.2934284210205078,-0.04981636628508568
1774159855744805600,7.2478056640625,-0.5999869108200073,0.39837703108787537,-0.004246627911925316
1774159855764796400,7.26779638671875,-0.7639317512512207,0.22381997108459473,-0.012959141284227371
1774159855784786700,7.28778662109375,-0.7052178978919983,0.04220929369330406,-0.012703143060207367
1774159855804777700,7.30777783203125,-0.5306323766708374,-0.2628726363182068,-0.05350007116794586
1774159855824767500,7.327767578125,-0.31091639399528503,-0.5001368522644043,0.09631554782390594
1774159855844757500,7.347757568359375,0.12113935500383377,-0.6248096227645874,0.29811444878578186
1774159855864748500,7.36774853515625,0.21057309210300446,-0.4037449359893799,0.3581457734107971
1774159855884738600,7.387738525390625,0.15591484308242798,-0.15422199666500092,0.2811090052127838
1774159855904728600,7.407728515625,0.13296112418174744,-0.07330948114395142,0.25630462169647217
1774159855924719600,7.4277197265625,0.13266870379447937,-0.01125751156359911,0.2759122848510742
1774159855944709600,7.447709716796875,0.07100190967321396,0.10605291277170181,0.25225937366485596
1774159855964699400,7.467699462890625,0.04412540793418884,0.28201907873153687,0.1610238403081894
1774159855984690700,7.487690673828125,0.09260405600070953,0.5615525245666504,0.04140119254589081
1774159856004680700,7.5076806640625,0.11053654551506042,0.758518636226654,-0.10136882960796356
1774159856024671500,7.52767138671875,-0.05784313753247261,0.6429203748703003,-0.1257523000240326
1774159856044661500,7.54766162109375,-0.16220346093177795,0.369083046913147,-0.06684865057468414
1774159856064651500,7.567651611328125,-0.16214866936206818,0.3025187849998474,-0.11408469080924988
1774159856084642600,7.587642578125,-0.14768213033676147,0.09262223541736603,-0.06130318343639374
1774159856104632600,7.607632568359375,-0.18022185564041138,0.013041330501437187,-0.022594742476940155
1774159856124622600,7.62762255859375,-0.11836139112710953,-0.01529998704791069,-0.02853737398982048
1774159856144613600,7.647613525390625,-0.05064699798822403,-0.0832594558596611,-0.11127626150846481
1774159856164603600,7.667603759765625,-0.008853157982230186,-0.16227051615715027,-0.2064453512430191
1774159856184593700,7.68759375,0.07737088948488235,-0.2164452075958252,-0.267311155796051
1774159856204584700,7.707584716796875,0.0560368187725544,-0.04118659719824791,-0.3621865510940552
1774159856224574500,7.727574462890625,-0.06036084517836571,-0.2504931390285492,-0.3261372148990631
1774159856244565500,7.7475654296875,-0.22760766744613647,-0.11769519746303558,-0.3747031092643738
1774159856264556000,7.76755615234375,0.030529402196407318,-0.19032026827335358,-0.3780839443206787
1774159856284545800,7.7875458984375,0.45378968119621277,-0.2136821448802948,-0.4248136579990387
1774159856304537000,7.807537109375,0.6594487428665161,-0.22178585827350616,-0.4127292335033417
1774159856324527000,7.827527099609375,0.7564740180969238,-0.3012929856777191,-0.4400681257247925
1774159856344517000,7.84751708984375,0.7637012004852295,-0.11816944926977158,-0.32573121786117554
1774159856364508000,7.8675078125,0.4955141544342041,0.23403212428092957,-0.1147458553314209
1774159856384498000,7.887497802734375,-0.10984038561582565,0.36758074164390564,0.02905002422630787
1774159856404488200,7.90748828125,-0.2708521783351898,0.30315613746643066,0.10536669939756393
1774159856424479000,7.92747900390625,-0.12430045753717422,0.2595865726470947,0.15484075248241425
1774159856444469000,7.947468994140625,0.042782239615917206,0.17177224159240723,0.11812789738178253
1774159856464459000,7.967458984375,-0.051461245864629745,0.26481759548187256,0.05873531848192215
1774159856484449800,7.98744970703125,-0.316124826669693,0.3880956470966339,0.023933878168463707
1774159856504440000,8.007440185546875,-0.4853534400463104,0.39808639883995056,0.10842610895633698
1774159856524431000,8.02743115234375,-0.4964209496974945,0.20585554838180542,0.24681146442890167
1774159856544420900,8.0474208984375,-0.3105216920375824,0.1929711550474167,0.24031461775302887
1774159856564411000,8.067410888671875,-0.17627757787704468,0.30865252017974854,0.15401732921600342
1774159856584402200,8.087402099609376,-0.13984091579914093,0.1675134003162384,0.05228259041905403
1774159856604392000,8.107391845703125,-0.10850517451763153,0.08801522850990295,-0.044256821274757385
1774159856624382000,8.1273818359375,-0.1312221735715866,0.049381062388420105,0.011106513440608978
1774159856644373000,8.147373046875,-0.14460495114326477,-0.062159549444913864,0.06241632252931595
1774159856664363000,8.167363037109375,-0.20024950802326202,-0.0503285676240921,0.04693439602851868
1774159856684352800,8.187352783203124,-0.21753937005996704,-0.1178625151515007,0.0984610915184021
1774159856704344000,8.207343994140626,-0.14210602641105652,-0.19252164661884308,0.17815488576889038
1774159856724334000,8.227333984375,-0.13496138155460358,-0.2326093167066574,0.19158603250980377
1774159856744324000,8.247323974609374,-0.16715097427368164,-0.21607635915279388,0.1829787939786911
1774159856764315000,8.26731494140625,-0.23758970201015472,-0.2810468077659607,0.1353175789117813
1774159856784305000,8.287304931640625,-0.20313462615013123,-0.2932051420211792,0.05170281603932381
1774159856804295200,8.307295166015624,-0.15574674308300018,-0.3041544258594513,-0.01261212956160307
1774159856824286000,8.327285888671875,-0.10763484239578247,-0.27981680631637573,0.009296842850744724
1774159856844276000,8.34727587890625,-0.042667847126722336,-0.24029208719730377,-0.024140793830156326
1774159856864266000,8.367265869140626,-0.052482668310403824,-0.0984012708067894,-0.08643868565559387
1774159856884257000,8.387257080078125,-0.07360867410898209,-0.0390033945441246,-0.19605812430381775
1774159856904247000,8.4072470703125,0.05716131627559662,0.3029440939426422,-0.5156577229499817
1774159856924238000,8.427238037109374,0.009497161954641342,-0.057168446481227875,-0.36228492856025696
1774159856944227800,8.447227783203125,0.060204170644283295,-0.09130798280239105,-0.47508516907691956
1774159856964217900,8.4672177734375,0.09550635516643524,-0.15488462150096893,-0.5732324123382568
1774159856984209200,8.487209228515624,0.20148898661136627,-0.1927955150604248,-0.6050755977630615
1774159857004199000,8.507198974609375,0.16172121465206146,-0.11403031647205353,-0.2913650870323181
1774159857024189000,8.52718896484375,-0.05378364771604538,0.01784907840192318,0.05366213992238045
1774159857044180000,8.547179931640626,-0.22346986830234528,-0.0048812017776072025,0.2249431163072586
1774159857064170000,8.567169921875,-0.30281275510787964,0.00547163188457489,0.13680507242679596
1774159857084159700,8.58715966796875,-0.5010666251182556,-0.11762905865907669,0.014255385845899582
1774159857104151000,8.607151123046876,-0.5466142296791077,-0.36658740043640137,-0.02721177414059639
1774159857124141000,8.62714111328125,-0.1296556144952774,-0.2750261425971985,0.05870107188820839
1774159857144131000,8.647131103515624,0.13577543199062347,-0.19084540009498596,0.3193780481815338
1774159857164121900,8.667121826171876,0.20152626931667328,-0.11898092180490494,0.44539570808410645
1774159857184112000,8.687112060546875,0.1387328803539276,0.01801707036793232,0.4926522672176361
1774159857204102100,8.70710205078125,0.15072134137153625,0.15308237075805664,0.47572484612464905
1774159857224093000,8.727093017578126,0.14468739926815033,0.3221544921398163,0.34887123107910156
1774159857244083000,8.7470830078125,0.1892387568950653,0.48029059171676636,0.3548862934112549
1774159857264074000,8.767073974609374,0.06228594481945038,0.7440032958984375,0.2861855924129486
1774159857284065000,8.78706494140625,0.0025370395742356777,1.0548150539398193,0.18884974718093872
1774159857304055000,8.807054931640625,0.05194367095828056,0.9426090717315674,0.15242229402065277
1774159857324045000,8.827045166015624,0.04527423530817032,0.7612361907958984,0.16598659753799438
1774159857344036000,8.8470361328125,-0.07245878130197525,0.8052971363067627,0.18376441299915314
1774159857364026000,8.867026123046875,-0.13511444628238678,0.8759851455688477,0.21307383477687836
1774159857384016100,8.88701611328125,-0.17449836432933807,0.9341325759887695,0.15409205853939056
1774159857404007000,8.9070068359375,-0.10415294021368027,1.064195990562439,0.09033867716789246
1774159857423997000,8.926996826171875,0.021274100989103317,0.9277101159095764,0.0011607818305492401
1774159857443987000,8.946987060546874,0.09326079487800598,0.6784906983375549,-0.030182139948010445
1774159857463978000,8.96697802734375,0.13551081717014313,0.6578696966171265,0.004196431487798691
1774159857483968000,8.986968017578125,0.12668997049331665,0.03459394350647926,0.0724397748708725
1774159857503958000,9.0069580078125,0.109775610268116,-0.30759334564208984,0.07137717306613922
1774159857523948800,9.02694873046875,0.10391473770141602,-0.5315868854522705,-0.014585441909730434
1774159857543939000,9.04693896484375,0.09268654137849808,-0.6088224053382874,-0.05197009816765785
1774159857563929000,9.06692919921875,0.19172678887844086,-0.2546716034412384,-0.09755939990282059
1774159857583920000,9.086920166015625,0.4349557161331177,0.1105564534664154,-0.3313508629798889
1774159857603910000,9.106909912109375,0.6200391054153442,0.3237544000148773,-0.3852834403514862
1774159857623900000,9.12689990234375,0.7285147309303284,0.31090089678764343,-0.3169798254966736
1774159857643891200,9.14689111328125,0.6799345016479492,0.24925479292869568,-0.20337247848510742
1774159857663881000,9.166880859375,0.5516281723976135,0.114272840321064,-0.15055842697620392
1774159857683872000,9.1868720703125,0.4232417941093445,0.3515028655529022,-0.18780888617038727
1774159857703862000,9.206862060546875,0.2157135009765625,0.5987911820411682,-0.16474288702011108
1774159857723852000,9.22685205078125,0.13469864428043365,0.5752056241035461,-0.03902946040034294
1774159857743843000,9.246843017578126,0.10276187211275101,0.3357117474079132,0.3003544509410858
1774159857763833000,9.2668330078125,0.025515783578157425,-0.020261865109205246,0.4949619174003601
1774159857783823000,9.286822998046874,-0.15424947440624237,0.22093980014324188,0.36858004331588745
1774159857803814000,9.30681396484375,-0.2764850854873657,0.7323043346405029,0.2775963544845581
1774159857823804000,9.326803955078125,-0.36647722125053406,0.7996147871017456,0.1523890346288681
1774159857843794200,9.346794189453124,-0.3094708323478699,0.290932297706604,0.03925170749425888
1774159857863785000,9.366784912109376,-0.24780994653701782,-0.03931181877851486,0.09564086049795151
1774159857883775000,9.38677490234375,-0.14629867672920227,0.13294829428195953,0.1020740270614624
1774159857903765000,9.406764892578124,-0.0639951080083847,0.16344022750854492,0.05960802361369133
1774159857923756000,9.426756103515626,-0.07790018618106842,0.09743022173643112,0.051594022661447525
1774159857943746000,9.44674609375,-0.1618078649044037,0.06106024235486984,0.07702097296714783
1774159857963736000,9.466736083984374,-0.19166792929172516,-0.0066704219207167625,0.10700511932373047
1774159857983727000,9.48672705078125,-0.17576538026332855,-0.10394556075334549,0.15584951639175415
1774159858003716900,9.506716796875,-0.16021332144737244,-0.2503083646297455,0.22047969698905945
1774159858023707000,9.526706787109376,-0.23347695171833038,-0.4402960240840912,0.3102574348449707
1774159858043698200,9.5466982421875,-0.19509334862232208,-0.3710079789161682,0.25119271874427795
1774159858063688000,9.56668798828125,-0.17765261232852936,-0.03899259865283966,0.05167152360081673
1774159858083678000,9.586677978515626,-0.20164965093135834,-0.1192556619644165,0.02316277287900448
1774159858103669000,9.6066689453125,-0.20630155503749847,-0.22950847446918488,0.025066275149583817
1774159858123659000,9.626658935546875,-0.20266178250312805,-0.3531714975833893,0.05304970592260361
1774159858143649000,9.64664892578125,-0.14579929411411285,-0.3667791783809662,0.019180580973625183
1774159858163640000,9.66664013671875,-0.05805325135588646,-0.23097670078277588,-0.11628515273332596
1774159858183630000,9.686630126953125,-0.010903799906373024,-0.28655174374580383,-0.1575605273246765
1774159858203619800,9.706619873046876,-0.02097630873322487,-0.5056665539741516,-0.13505572080612183
1774159858223611100,9.726611083984375,-0.004697703756392002,-0.4758729040622711,-0.31811466813087463
1774159858243601200,9.74660107421875,-0.0034756544046103954,-0.4817650318145752,-0.3794633448123932
1774159858263591200,9.766591064453126,-0.11327696591615677,-0.35978320240974426,-0.25249919295310974
1774159858283580400,9.786580322265625,-0.14586025476455688,-0.28964170813560486,0.13965633511543274
1774159858303570200,9.806570068359376,-0.13363134860992432,-0.2516835331916809,0.5091044902801514
1774159858323560200,9.826560302734375,-0.05039821192622185,-0.15579107403755188,0.41536635160446167
1774159858343550500,9.846550537109374,-0.010097537189722061,-0.1331256777048111,0.2692006230354309
1774159858363541200,9.866541259765626,0.07569250464439392,-0.469090074300766,0.3266492486000061
1774159858383531300,9.88653125,0.23071065545082092,-0.8597007989883423,0.3500484228134155
1774159858403521300,9.906521240234374,0.25115635991096497,-0.9660150408744812,0.2505231201648712
1774159858423512600,9.9265126953125,0.13257716596126556,-0.8473466634750366,0.13185200095176697
1774159858443502300,9.94650244140625,0.08422596007585526,-0.5370197892189026,0.08668850362300873
1774159858463492400,9.966492431640624,0.0989631712436676,-0.2830224931240082,0.05802365764975548
1774159858483483400,9.9864833984375,0.14692234992980957,-0.19366538524627686,0.07239404320716858
1774159858503473400,10.006473388671875,0.17459934949874878,-0.10652682185173035,0.07393567264080048
1774159858523463200,10.026463134765624,0.21599270403385162,-0.10431752353906631,0.13629643619060516
1774159858543454500,10.046454345703125,0.20965902507305145,-0.016963709145784378,0.1260855346918106
1774159858563444500,10.066444580078125,0.22326889634132385,0.06946100294589996,0.058856215327978134
1774159858583434200,10.086434326171876,0.21653960645198822,0.13913753628730774,0.04896960407495499
1774159858603425300,10.10642529296875,0.17193180322647095,0.21265149116516113,0.04114525765180588
1774159858623415300,10.126415283203125,-0.06873226165771484,0.11636315286159515,0.0758158415555954
1774159858643405300,10.1464052734375,-0.2069842368364334,0.15458892285823822,0.10367438942193985
1774159858663396400,10.166396240234375,-0.29642000794410706,0.22996774315834045,0.07350475341081619
1774159858683386400,10.186386474609375,-0.3823835551738739,0.1620941162109375,0.04043743759393692
1774159858703376400,10.20637646484375,-0.27731603384017944,0.06441251188516617,0.12238252907991409
1774159858723367400,10.226367431640625,0.10547345131635666,-0.5054730176925659,0.33506181836128235
1774159858743357400,10.246357421875,0.15793485939502716,-0.8989789485931396,0.4227730631828308
1774159858763347500,10.266347412109376,0.19553230702877045,-1.0824579000473022,0.30521392822265625
1774159858783338200,10.286338134765625,0.19177885353565216,-0.619821310043335,0.0108574777841568
1774159858803328300,10.306328369140624,0.28800198435783386,-0.08357106894254684,-0.20880545675754547
1774159858823318300,10.326318359375,0.45902639627456665,0.6144118905067444,-0.34469717741012573
1774159858843309300,10.346309326171875,0.7150111794471741,-1.4876632690429688,-0.1639733463525772
1774159858863299300,10.36629931640625,0.8472589254379272,-1.1662273406982422,0.042090725153684616
1774159858883289300,10.386289306640625,0.8609065413475037,-0.010061850771307945,-0.2619222104549408
1774159858903280400,10.4062802734375,0.7132061123847961,0.8645997643470764,-0.37125498056411743
1774159858923270400,10.4262705078125,0.44073042273521423,0.5638545751571655,-0.15915532410144806
1774159858943260400,10.446260498046875,0.25384238362312317,0.7292032837867737,-0.046446219086647034
1774159858963251500,10.46625146484375,0.14688318967819214,1.0185682773590088,-0.0529714971780777
1774159858983241200,10.4862412109375,0.08255016803741455,0.941574215888977,-0.08744002133607864
1774159859003231200,10.506231201171875,-0.014760054647922516,1.0810177326202393,-0.04233408719301224
1774159859023222500,10.526222412109375,-0.17713792622089386,0.862738847732544,0.06254740804433823
1774159859043212300,10.54621240234375,-0.3331020772457123,0.29193297028541565,0.1723908931016922
1774159859063202300,10.566202392578125,-0.33556264638900757,0.4333154857158661,0.20691080391407013
1774159859083193300,10.586193359375,-0.33078375458717346,0.4364585280418396,0.21209649741649628
1774159859103183400,10.606183349609376,-0.27270543575286865,0.1776718646287918,0.1869688630104065
1774159859123173000,10.626173095703125,-0.23554635047912598,0.008681540377438068,0.1396450698375702
1774159859143163400,10.646163330078124,-0.22859147191047668,-0.03151717036962509,0.11016050726175308
1774159859163154400,10.666154541015626,-0.22460226714611053,0.15870796144008636,0.08227299898862839
1774159859183144400,10.68614453125,-0.22702950239181519,0.23351392149925232,0.08589944243431091
1774159859203134200,10.70613427734375,-0.2231353521347046,0.22064417600631714,0.12759098410606384
1774159859223125500,10.72612548828125,-0.20524248480796814,0.045548051595687866,0.17194558680057526
1774159859243115500,10.746115478515625,-0.1516425907611847,-0.2706623375415802,0.19891221821308136
1774159859263105300,10.766105224609374,-0.07425175607204437,-0.46749675273895264,0.15587645769119263
1774159859283098600,10.7860986328125,-0.01884564757347107,-0.4709343910217285,0.09426361322402954
1774159859303088600,10.806088623046875,-0.006389077287167311,-0.44860827922821045,0.055396344512701035
1774159859323078700,10.82607861328125,0.011578021571040154,-0.42944851517677307,0.0393233485519886
1774159859343069400,10.8460693359375,0.06040041148662567,-0.4579360783100128,0.006760294549167156
1774159859363059500,10.8660595703125,0.0974293202161789,-0.46377894282341003,-0.04579837620258331
1774159859383049500,10.886049560546875,0.09211853891611099,-0.5010142922401428,-0.034284163266420364
1774159859403040800,10.906040771484374,0.04563049226999283,-0.4712764322757721,-0.0190597977489233
1774159859423030500,10.926030517578125,0.033605750650167465,-0.32801660895347595,-0.09718718379735947
1774159859443020500,10.9460205078125,0.048899851739406586,-0.4327635169029236,-0.22273698449134827
1774159859463011600,10.966011474609376,0.050473880022764206,-0.6990546584129333,-0.341116338968277
1774159859483001600,10.986001708984375,0.045297104865312576,-0.8801485300064087,-0.3200119137763977
1774159859502991600,11.00599169921875,0.1370062530040741,-0.8632766604423523,-0.35395193099975586
1774159859522982700,11.025982666015626,0.29337069392204285,-0.8959283232688904,-0.21406911313533783
1774159859542972700,11.04597265625,0.3378295302391052,-0.8483844995498657,-0.15594078600406647
1774159859562962400,11.06596240234375,0.17718131840229034,-0.9942576289176941,0.07822223007678986
1774159859582952400,11.085952392578125,-0.053380243480205536,-1.3020360469818115,0.3627639710903168
1774159859602943700,11.10594384765625,-0.2504742741584778,-1.3436415195465088,0.34537938237190247
1774159859622933500,11.12593359375,-0.4412091076374054,-1.007036805152893,0.2627418041229248
1774159859642923500,11.145923583984375,-0.5532128214836121,-1.1074957847595215,0.2962478995323181
1774159859662914600,11.16591455078125,-0.49587753415107727,-1.2800984382629395,0.30469387769699097
1774159859682904600,11.185904541015624,-0.38106998801231384,-0.9821255803108215,0.25708097219467163
1774159859702894600,11.20589453125,-0.10861070454120636,-0.36136719584465027,0.18272748589515686
1774159859722885600,11.2258857421875,0.029814785346388817,-0.2042119801044464,0.1684838831424713
1774159859742875600,11.245875732421876,0.07000389695167542,0.0037902770563960075,0.1488122195005417
1774159859762865700,11.26586572265625,0.02133101224899292,0.3833348751068115,-0.005483001936227083
1774159859782856700,11.285856689453125,-0.06322599947452545,0.5520851016044617,-0.23700132966041565
1774159859802846700,11.3058466796875,-0.17726169526576996,0.33150842785835266,-0.029048621654510498
1774159859822836700,11.325836669921875,-0.23133675754070282,0.20022186636924744,0.022567665204405785
1774159859842826500,11.345826416015624,-0.21512936055660248,0.07385499030351639,0.09183016419410706
1774159859862817500,11.365817626953126,-0.1329284906387329,0.28954017162323,0.05932537466287613
1774159859882807600,11.3858076171875,-0.05825318023562431,0.49208635091781616,0.06211823225021362
1774159859902797800,11.4057978515625,-0.0054543460719287395,0.48662328720092773,0.060455817729234695
1774159859922788600,11.42578857421875,0.009726515039801598,0.42275041341781616,0.018267177045345306
1774159859942778600,11.445778564453125,-0.01784171722829342,0.41704753041267395,-0.013191626407206059
1774159859962768600,11.4657685546875,-0.055417660623788834,0.34224745631217957,0.041607245802879333
1774159859982759700,11.485759765625,0.023931968957185745,0.3842885196208954,-0.008424376137554646
1774159860002749700,11.505749755859375,0.08805577456951141,0.2537679672241211,0.022435592487454414
1774159860022739700,11.52573974609375,0.08159967511892319,0.16513516008853912,0.08068474382162094
1774159860042730500,11.54573046875,0.0682653859257698,-0.08983635157346725,0.1111387088894844
1774159860062720500,11.565720458984375,0.12857240438461304,-0.21822360157966614,0.03515451401472092
1774159860082710500,11.58571044921875,0.13564755022525787,0.03685087338089943,-0.17303046584129333
1774159860102701600,11.60570166015625,0.1401064097881317,0.41986870765686035,-0.29868456721305847
1774159860122691600,11.625691650390625,0.2630094289779663,0.1493080109357834,-0.3010243773460388
1774159860142681600,11.645681640625,0.3715874254703522,-0.0077140722423791885,-0.3046833276748657
1774159860162671600,11.665671630859375,0.5315753221511841,-0.048926252871751785,0.10530583560466766
1774159860182662400,11.685662353515625,0.507314920425415,-0.2803921699523926,0.1397794485092163
1774159860202652700,11.705652587890626,0.35566383600234985,0.17944487929344177,-0.013105586171150208
1774159860222642700,11.725642578125,0.18294662237167358,0.7467292547225952,-0.1903229057788849
1774159860242633500,11.745633544921875,0.06873361766338348,1.1393991708755493,-0.3241068124771118
1774159860262623500,11.76562353515625,0.053676582872867584,1.4637482166290283,-0.39840471744537354
1774159860282611200,11.785611083984374,0.07922449707984924,1.7219181060791016,-0.22862859070301056
1774159860302602200,11.805602294921876,0.1326030194759369,1.6231046915054321,0.03609318658709526
1774159860322592300,11.82559228515625,0.08842924237251282,1.1130335330963135,0.06214246526360512
1774159860342582300,11.845582275390624,-0.1137833446264267,0.6652156710624695,0.04257931560277939
1774159860362572300,11.865572265625,-0.22832144796848297,0.7614704370498657,0.15632817149162292
1774159860382563000,11.88556298828125,-0.2671804130077362,0.8084046840667725,0.16754405200481415
1774159860402553300,11.90555322265625,-0.22161051630973816,0.6172435283660889,0.15742942690849304
1774159860422543400,11.92554345703125,-0.18660499155521393,0.37908637523651123,0.30858349800109863
1774159860442534100,11.9455341796875,-0.20666585862636566,0.3259652256965637,0.41256093978881836
1774159860462524200,11.965524169921874,-0.24188464879989624,0.2991699278354645,0.42897310853004456
1774159860482514200,11.98551416015625,-0.2764439284801483,0.2089415341615677,0.3554438054561615
1774159860502505200,12.005505126953125,-0.2891467213630676,0.13017024099826813,0.26923665404319763
1774159860522495200,12.0254951171875,-0.27170896530151367,-0.09168298542499542,0.22455501556396484
1774159860542485200,12.0454853515625,-0.21111825108528137,-0.2685026228427887,0.11777932941913605
1774159860562476000,12.06547607421875,-0.15377363562583923,-0.2228345423936844,0.04908781498670578
1774159860582466000,12.085466064453126,-0.09898458421230316,-0.37229064106941223,0.013215390965342522
1774159860602456300,12.105456298828125,-0.026663122698664665,-0.5555121898651123,0.012657064944505692
1774159860622446300,12.1254462890625,-0.05708959698677063,-0.4788799583911896,0.07867135852575302
1774159860642437000,12.14543701171875,-0.14599429070949554,-0.36295169591903687,0.07292172312736511
1774159860662427100,12.16542724609375,-0.16632992029190063,-0.13874123990535736,-0.031023692339658737
1774159860682417200,12.185417236328124,-0.0661364197731018,-0.061569951474666595,-0.16543827950954437
1774159860702408200,12.205408203125,0.11785416305065155,-0.5338591933250427,-0.43847960233688354
1774159860722398200,12.225398193359375,0.303195059299469,-0.41992878913879395,-0.38843560218811035
1774159860742388200,12.24538818359375,0.11056575179100037,0.47100067138671875,-0.204910546541214
1774159860762379300,12.265379150390626,-0.030116653069853783,0.27324262261390686,0.192191019654274
1774159860782369000,12.285369140625,0.0019459770992398262,-0.4922126531600952,0.4115428030490875
1774159860802359000,12.305359130859374,0.10875172168016434,-0.7533826231956482,0.33308038115501404
1774159860822349300,12.325349365234375,0.08612348884344101,-0.5499615669250488,0.2403220385313034
1774159860842340400,12.34534033203125,-0.020011547952890396,-0.570743203163147,0.27147480845451355
1774159860862330000,12.365330078125,-0.01090594194829464,-0.6618808507919312,0.40388303995132446
1774159860882320100,12.385320068359375,0.039097294211387634,-0.7927302122116089,0.5213905572891235
1774159860902311400,12.4053115234375,0.18322543799877167,-0.5360400676727295,0.39521050453186035
1774159860922301200,12.42530126953125,0.3668583035469055,-0.1793018877506256,0.16379044950008392
1774159860942291200,12.445291259765625,0.29149118065834045,-0.18867094814777374,0.045889731496572495
1774159860962282200,12.4652822265625,0.20802374184131622,-0.2722020447254181,0.00979500263929367
1774159860982272300,12.485272216796876,0.1610141545534134,-0.2216389924287796,0.017029747366905212
1774159861002262000,12.505261962890625,0.1160663515329361,-0.2502504587173462,-0.016560222953557968
1774159861022252300,12.525252197265624,0.09036827832460403,-0.2943410277366638,0.07082334905862808
1774159861042243300,12.545243408203126,0.10291904211044312,-0.41007199883461,0.13671046495437622
1774159861062233000,12.565233154296875,0.1477285623550415,-0.29027825593948364,0.16051806509494781
1774159861082223000,12.58522314453125,0.17590868473052979,-0.20696046948432922,0.1582820564508438
1774159861102214400,12.60521435546875,0.10175018757581711,-0.07466122508049011,0.009014450013637543
1774159861122204400,12.625204345703125,0.07355741411447525,-0.02951641008257866,0.04614749178290367
1774159861142194200,12.645194091796874,0.08876867592334747,0.14080782234668732,0.08177710324525833
1774159861162185200,12.665185302734375,-0.04690984636545181,0.10950224101543427,0.06263325363397598
1774159861182175200,12.68517529296875,0.03551452234387398,0.10428605228662491,0.08119846135377884
1774159861202165200,12.705165283203126,0.12578770518302917,0.07663501799106598,-0.03145874664187431
1774159861222155300,12.7251552734375,0.20902274549007416,-0.052796877920627594,-0.05512627214193344
1774159861242146300,12.745146240234375,0.16875070333480835,0.03894612193107605,0.06074104458093643
1774159861262136300,12.76513623046875,0.09949758648872375,0.008068610914051533,0.03727944940328598
1774159861282127600,12.785127685546875,0.06165008991956711,0.0014884978299960494,-0.10367799550294876
1774159861302118700,12.80511865234375,0.2006806880235672,0.028655413538217545,-0.31043633818626404
1774159861322108400,12.8251083984375,0.43226248025894165,0.06684216856956482,-0.37327590584754944
1774159861342098400,12.845098388671875,0.6139593124389648,0.30985987186431885,-0.3409970700740814
1774159861362088400,12.86508837890625,0.545400857925415,0.5583974123001099,-0.169419527053833
1774159861382079500,12.88507958984375,0.33953481912612915,0.5583674311637878,-0.3393959403038025
1774159861402069500,12.905069580078125,0.19288405776023865,0.8343155384063721,-0.24223770201206207
1774159861422059500,12.9250595703125,0.2091464102268219,0.8692296147346497,-0.25164365768432617
1774159861442050600,12.945050537109376,0.11196820437908173,0.9673032164573669,-0.2026570588350296
1774159861462040300,12.965040283203125,-0.04661424830555916,1.1569054126739502,-0.02054131031036377
1774159861482030600,12.985030517578124,-0.040024083107709885,1.2208346128463745,0.007945848628878593
1774159861502021600,13.005021728515626,-0.2137998640537262,1.0083553791046143,-0.022398315370082855
1774159861522011400,13.025011474609375,-0.44597622752189636,0.9675986766815186,0.053671594709157944
1774159861542001400,13.04500146484375,-0.5468186736106873,0.9355078339576721,0.19624286890029907
1774159861561991400,13.064991455078125,-0.5363251566886902,0.6710408926010132,0.26136237382888794
1774159861581982700,13.084982666015625,-0.49032270908355713,0.3874904215335846,0.18795575201511383
1774159861601972500,13.104972412109374,-0.4381787180900574,0.19688686728477478,0.09286826103925705
1774159861621962500,13.12496240234375,-0.40730518102645874,0.25276386737823486,0.0035712867975234985
1774159861641953500,13.14495361328125,-0.38775634765625,0.5033040046691895,-0.08331981301307678
1774159861661943600,13.164943603515624,-0.3788553476333618,0.4742085039615631,-0.036277130246162415
1774159861681933300,13.184933349609375,-0.33609166741371155,0.1848575323820114,0.07287509739398956
1774159861701923600,13.204923583984375,-0.2901221513748169,-0.019973013550043106,0.09393645823001862
1774159861721914600,13.22491455078125,-0.23570890724658966,-0.025297069922089577,-0.009594050236046314
1774159861741904400,13.244904296875,-0.15475821495056152,-0.050814852118492126,-0.11259551346302032
1774159861761894400,13.264894287109374,-0.0669887587428093,-0.16226111352443695,-0.21057340502738953
1774159861781885700,13.2848857421875,0.036996323615312576,-0.24315203726291656,-0.18500079214572906
1774159861801875700,13.304875732421875,0.1042979434132576,-0.36593160033226013,-0.0943371132016182
1774159861821865500,13.324865478515624,0.07952727377414703,-0.3795525133609772,0.08132942765951157
1774159861841855500,13.34485546875,0.028610175475478172,-0.03397614508867264,0.05219324305653572
1774159861861846500,13.364846435546875,0.21528366208076477,-0.17925848066806793,-0.1574186384677887
1774159861881836300,13.384836181640624,0.399467796087265,-0.3056296408176422,-0.31352582573890686
1774159861901826600,13.40482666015625,0.45727434754371643,-0.3349236249923706,-0.47417840361595154
1774159861921817600,13.424817626953125,0.4419957101345062,-0.2945566773414612,-0.23213128745555878
1774159861941807600,13.4448076171875,0.2962770164012909,-0.06822629272937775,0.037962108850479126
1774159861961797400,13.46479736328125,0.2603648602962494,-0.2391228824853897,0.10911250859498978
1774159861981787400,13.484787353515625,0.1793498992919922,-0.5359593629837036,-0.008630800992250443
1774159862001778700,13.50477880859375,0.02460293285548687,-0.5925997495651245,-0.11171957850456238
1774159862021768400,13.5247685546875,0.0030788006260991096,-0.5218449831008911,-0.06454537808895111
1774159862041758500,13.544758544921875,-0.02282443642616272,-0.5485532879829407,0.0816645622253418
1774159862061749500,13.56474951171875,-0.07257220894098282,-0.5108784437179565,0.0675734430551529
1774159862081739500,13.584739501953125,0.019045516848564148,-0.6664663553237915,0.08645505458116531
1774159862101729300,13.604729248046874,0.08827430009841919,-0.7049036622047424,0.17072468996047974
1774159862121719600,13.624719482421876,0.12439900636672974,-0.5048670172691345,0.12402008473873138
1774159862141710600,13.644710693359375,0.1258632093667984,-0.28846463561058044,0.10326515883207321
1774159862161700600,13.66470068359375,0.17173011600971222,-0.2641516625881195,0.1327013224363327
1774159862181690400,13.6846904296875,0.153551384806633,-0.3312841057777405,0.2366388589143753
1774159862201681700,13.704681640625,0.07517056167125702,-0.21716739237308502,0.26881149411201477
1774159862221671700,13.724671630859374,-0.02010911889374256,-0.24290373921394348,0.15753862261772156
1774159862241661400,13.744661376953125,-0.06913644075393677,-0.4685938060283661,0.14311400055885315
1774159862261651500,13.7646513671875,-0.08835434168577194,-0.21989558637142181,0.17550693452358246
1774159862281641500,13.784641357421876,-0.1075299009680748,-0.11591672897338867,0.18247750401496887
1774159862301631500,13.804631591796875,-0.08712688088417053,-0.004933989606797695,0.21092931926250458
1774159862321621500,13.82462158203125,-0.05057748407125473,-0.04257556051015854,0.2097415179014206
1774159862341612300,13.8446123046875,-0.009633236564695835,0.05409533530473709,0.1497594565153122
1774159862361602300,13.864602294921875,0.03869656100869179,0.13014766573905945,0.10057272017002106
1774159862381592300,13.88459228515625,0.09321676194667816,0.21020250022411346,0.069612517952919
1774159862401582600,13.90458251953125,0.1368367224931717,0.21281617879867554,0.02794528380036354
1774159862421573400,13.924573486328125,0.15882186591625214,0.24258413910865784,-0.08875533938407898
1774159862441563400,13.9445634765625,0.11393463611602783,0.2559185028076172,-0.19966493546962738
1774159862461553400,13.964553466796875,0.07336148619651794,0.15958471596240997,-0.26491186022758484
1774159862481544400,13.98454443359375,0.1731579601764679,-0.07069465517997742,-0.37908971309661865
1774159862501534500,14.004534423828124,0.2476072460412979,-0.0038600314874202013,-0.10937866568565369
1774159862521524500,14.0245244140625,0.201153963804245,0.2261158674955368,0.1572602242231369
1774159862541514500,14.044514404296875,0.12542015314102173,-0.12485796213150024,0.01707736775279045
1774159862561505300,14.06450537109375,0.1454046666622162,-0.4182676672935486,0.06431232392787933
1774159862581495300,14.084495361328125,0.18465188145637512,-0.28550392389297485,-0.09475560486316681
1774159862601485600,14.104485595703125,0.15705052018165588,-0.30659472942352295,-0.171828955411911
1774159862621476400,14.124476318359376,0.03406696021556854,0.48156997561454773,0.044540222734212875
1774159862641466400,14.14446630859375,0.04291686788201332,0.7083507776260376,-0.07281040400266647
1774159862661456400,14.164456298828124,-0.07609271258115768,0.675572395324707,-0.016070785000920296
1774159862681446400,14.1844462890625,-0.2283746749162674,0.5724889039993286,0.029399016872048378
1774159862701437400,14.2044375,-0.34944358468055725,0.5219346284866333,0.15681038796901703
1774159862721427500,14.224427490234374,-0.41176581382751465,0.5616562366485596,0.22396855056285858
1774159862741417500,14.24441748046875,-0.3364449441432953,0.24756276607513428,0.2961842119693756
1774159862761408300,14.264408203125,-0.3604693114757538,0.2930207848548889,0.3657529950141907
1774159862781398300,14.284398193359374,-0.335237979888916,0.17744256556034088,0.24286474287509918
1774159862801388500,14.304388427734375,-0.3242068886756897,0.12792693078517914,0.19102934002876282
1774159862821378600,14.324378662109375,-0.2947821021080017,0.09236430376768112,0.2020113468170166
1774159862841369300,14.344369384765624,-0.3514206111431122,0.2312886267900467,0.10082481801509857
1774159862861359400,14.364359375,-0.32747355103492737,0.3599904775619507,0.041203904896974564
1774159862881349400,14.384349365234375,-0.24553106725215912,0.38381844758987427,-0.05768441781401634
1774159862901340400,14.40434033203125,-0.15300461649894714,0.2386314421892166,-0.14092609286308289
1774159862921330400,14.424330322265625,-0.009096628054976463,0.06102219223976135,-0.1687881052494049
1774159862941320400,14.444320556640625,0.0537913478910923,-0.048872433602809906,-0.2650172710418701
1774159862961310500,14.464310546875,0.10894577205181122,0.09665165096521378,-0.35144153237342834
1774159862981301200,14.48430126953125,0.1448918730020523,0.1511363685131073,-0.3789622485637665
1774159863001291300,14.504291259765624,0.06469050794839859,0.2847660779953003,-0.36678773164749146
1774159863021281500,14.524281494140626,0.0749417170882225,0.3039848208427429,-0.32159700989723206
1774159863041272300,14.544272216796875,0.05725874751806259,0.20253072679042816,-0.3335878849029541
1774159863061262300,14.564262451171874,0.08321738243103027,0.18466304242610931,-0.23450082540512085
1774159863081252400,14.58425244140625,0.09311776608228683,-0.019111216068267822,-0.31681808829307556
1774159863101242400,14.604242431640625,0.04418209567666054,0.1314706653356552,-0.1784542351961136
1774159863121233400,14.6242333984375,-0.039298661053180695,0.28117841482162476,-0.19871316850185394
1774159863141223400,14.644223388671875,-0.023128725588321686,-0.2908642888069153,0.08190193772315979
1774159863161213400,14.66421337890625,0.07900793105363846,-0.7597329020500183,0.1253332644701004
1774159863181204200,14.684204345703124,0.11427384614944458,-0.7927889823913574,0.030198264867067337
1774159863201194200,14.7041943359375,-0.014206968247890472,-0.6786095499992371,0.14748623967170715
1774159863221184500,14.7241845703125,-0.1475330889225006,-0.4413951635360718,0.2741440236568451
1774159863241174500,14.744174560546876,-0.25271159410476685,-0.3221420347690582,0.27306991815567017
1774159863261165300,14.764165283203125,-0.15117789804935455,-0.20549848675727844,0.21774506568908691
1774159863281156000,14.784156005859375,0.09542161226272583,-0.21880023181438446,-0.03305623307824135
1774159863301146000,14.80414599609375,0.23797869682312012,-0.6153810620307922,-0.08717627823352814
1774159863321135900,14.824135986328125,0.2530323266983032,-0.7227306365966797,0.15530560910701752
1774159863341127200,14.844127197265625,0.30721333622932434,-0.788166880607605,0.24258096516132355
1774159863361117200,14.8641171875,0.3890644311904907,-0.7969681620597839,0.15554776787757874
1774159863381107200,14.884107177734375,0.37898895144462585,-0.5547882318496704,0.17529982328414917
1774159863401098000,14.904097900390624,0.2549378573894501,-0.38669106364250183,0.24087713658809662
1774159863421088000,14.924087890625,0.144972026348114,-0.3724738359451294,0.20363962650299072
1774159863441078300,14.944078369140625,0.14550411701202393,-0.18404938280582428,0.09036862850189209
1774159863461068000,14.964068115234374,0.17738181352615356,-0.18848156929016113,0.028628526255488396
1774159863481059000,14.98405908203125,0.1724284142255783,-0.3539441227912903,0.05558688938617706
1774159863501049000,15.004049072265625,0.13319729268550873,-0.38696911931037903,0.056079648435115814
1774159863521039000,15.0240390625,0.07135315984487534,-0.3558374047279358,0.06390245258808136
1774159863541030100,15.044030029296875,0.020422883331775665,-0.28797659277915955,0.05802623927593231
1774159863561020200,15.064020263671875,0.012716945260763168,-0.27396079897880554,0.02307615615427494
1774159863581010200,15.08401025390625,0.032277580350637436,-0.2946533262729645,-0.017846189439296722
1774159863601000200,15.104000244140625,0.00504685565829277,-0.16416703164577484,-0.11150632798671722
1774159863620991000,15.123990966796875,0.00908375158905983,-0.06709837168455124,-0.14895737171173096
1774159863640981200,15.143981201171876,-0.0265742689371109,-0.2269275188446045,-0.12021256238222122
1774159863660971300,15.16397119140625,-0.05935473367571831,-0.22623567283153534,-0.10172209143638611
1774159863680961000,15.1839609375,0.07189793884754181,-0.2720671594142914,-0.13271480798721313
1774159863700952000,15.2039521484375,0.33305326104164124,-0.2810203433036804,-0.28477713465690613
1774159863720942000,15.223942138671875,0.5991575121879578,-0.06377615034580231,-0.24640315771102905
1774159863740932000,15.24393212890625,0.7847574949264526,0.33074188232421875,-0.13453839719295502
1774159863760923100,15.263923095703126,0.47158491611480713,0.5023530721664429,-0.38907161355018616
1774159863780913200,15.2839130859375,0.3305020034313202,0.8632463216781616,-0.5090741515159607
1774159863800903200,15.303903076171874,-0.029685955494642258,0.8750995993614197,0.03248767927289009
1774159863820893000,15.323892822265625,-0.009531820192933083,1.0707745552062988,0.15641938149929047
1774159863840884200,15.34388427734375,0.10901045799255371,0.7622815370559692,0.1799536496400833
1774159863860874200,15.363874267578124,0.02953301928937435,0.6406453251838684,0.41860103607177734
1774159863880864300,15.3838642578125,-0.0814385935664177,0.7127240896224976,0.32246625423431396
1774159863900855000,15.40385498046875,-0.26379427313804626,0.3102118670940399,0.011172197759151459
1774159863920845000,15.423844970703126,-0.4318586587905884,0.2070167362689972,0.03301214426755905
1774159863940835000,15.4438349609375,-0.4533090889453888,0.3137735426425934,0.2718251049518585
1774159863960825000,15.4638251953125,-0.517632246017456,0.4220345616340637,0.27694663405418396
1774159863980816100,15.483816162109376,-0.40103042125701904,0.31170904636383057,0.16823814809322357
1774159864000806100,15.50380615234375,-0.2545681595802307,0.08170164376497269,0.2054692655801773
1774159864020796200,15.523796142578124,-0.19788113236427307,-0.0016892552375793457,0.1873209923505783
1774159864040786000,15.543785888671875,-0.19523003697395325,-0.028253134340047836,0.14928823709487915
1774159864060777200,15.563777099609375,-0.21403805911540985,0.06679938733577728,0.12596577405929565
1774159864080767200,15.583767333984374,-0.22359494864940643,0.1455775946378708,0.07358662784099579
1774159864100757200,15.60375732421875,-0.1929575353860855,0.14156895875930786,0.018995482474565506
1774159864120748000,15.623748046875,-0.1569294035434723,-0.08007455617189407,0.0014395862817764282
1774159864140738000,15.643738037109374,-0.14337597787380219,-0.28722548484802246,0.104073166847229
1774159864160728000,15.66372802734375,-0.11945857852697372,-0.3027605712413788,0.13891969621181488
1774159864180718000,15.683718017578125,-0.11922688037157059,-0.35423603653907776,0.20222677290439606
1774159864200709000,15.703709228515624,-0.08990781009197235,-0.3217889666557312,0.2589721977710724
1774159864220699100,15.72369921875,0.04398130998015404,-0.3552238643169403,0.37440240383148193
1774159864240689200,15.743689208984375,0.14535382390022278,-0.49303802847862244,0.2583540380001068
1774159864260679000,15.763678955078126,0.28500449657440186,-0.7485540509223938,-0.0759037584066391
1774159864280670200,15.783670166015625,0.36788737773895264,-0.9139618873596191,-0.41842663288116455
1774159864300660200,15.80366015625,0.43725723028182983,-0.9624267220497131,-0.782473623752594
1774159864320650200,15.823650146484376,0.40366604924201965,-0.6302028298377991,-1.019014835357666
1774159864340641300,15.843641357421875,0.40128669142723083,-0.13708223402500153,-0.6742717027664185
1774159864360631300,15.86363134765625,0.3065706789493561,-0.5634533166885376,0.1251421719789505
1774159864380621300,15.883621337890625,0.3857962489128113,-1.309843897819519,0.16659434139728546
1774159864400611000,15.903611083984375,0.23542816936969757,-1.7525750398635864,0.2886943817138672
1774159864420602400,15.923602294921874,0.10000374168157578,-1.101058006286621,0.3771273195743561
1774159864440592400,15.94359228515625,-0.014465045183897018,-1.090681791305542,0.20618529617786407
1774159864460582100,15.96358203125,-0.0916108563542366,-0.942868709564209,0.17760124802589417
1774159864480572200,15.983572265625,-0.13229741156101227,-0.7720191478729248,0.1255350261926651
1774159864500563200,16.003563232421875,-0.11131231486797333,-0.42995306849479675,0.09999255836009979
1774159864520553200,16.02355322265625,-0.08253368735313416,-0.18146070837974548,0.05673830211162567
1774159864540543200,16.043543212890626,-0.03870602324604988,-0.2949467599391937,0.12128986418247223
1774159864560534300,16.0635341796875,-0.05394606292247772,-0.7580208778381348,0.2582104802131653
1774159864580524300,16.083524169921876,-0.1322401612997055,-0.9148561954498291,0.317781001329422
1774159864600514000,16.10351416015625,-0.12859037518501282,-0.8826920390129089,0.33206185698509216
1774159864620504000,16.123504150390627,-0.1703903079032898,-0.9164960980415344,0.3334001302719116
1774159864640495400,16.143495361328124,-0.13935859501361847,-0.9522242546081543,0.360492080450058
1774159864660485400,16.1634853515625,-0.2345154881477356,-0.8033937811851501,0.42178478837013245
1774159864680475100,16.18347509765625,-0.22484837472438812,-0.648649275302887,0.37497738003730774
1774159864700466200,16.203466064453124,-0.2479516565799713,-0.6035738587379456,0.29133591055870056
1774159864720456200,16.223456298828125,-0.24009329080581665,-0.5431013703346252,0.31421011686325073
1774159864740446200,16.2434462890625,-0.22399891912937164,-0.4542967677116394,0.33830946683883667
1774159864760436200,16.263436279296876,-0.17684873938560486,-0.39976295828819275,0.2606581449508667
1774159864780427300,16.28342724609375,-0.12904252111911774,-0.38087350130081177,0.1757000833749771
1774159864800417300,16.303417236328126,-0.10742644965648651,-0.2732138931751251,0.14807634055614471
1774159864820407000,16.323406982421876,-0.08127482235431671,-0.15183386206626892,0.0905073955655098
1774159864840397000,16.34339697265625,-0.01728168874979019,0.0032801381312310696,0.013613732531666756
1774159864860388400,16.363388427734375,0.0663730576634407,0.21900299191474915,-0.10917063057422638
1774159864880378400,16.38337841796875,0.1908346712589264,0.39758092164993286,-0.2391131967306137
1774159864900368100,16.4033681640625,0.29480472207069397,0.4916698634624481,-0.33762097358703613
1774159864920359200,16.423359130859374,0.37265196442604065,0.49786776304244995,-0.3545573651790619
1774159864940349200,16.44334912109375,0.42998093366622925,0.5358767509460449,-0.3541390299797058
1774159864960339200,16.463339111328125,0.4786607623100281,0.5972536206245422,-0.30596092343330383
1774159864980329200,16.4833291015625,0.532974362373352,0.6493626236915588,-0.28889942169189453
1774159865000320300,16.5033203125,0.5423609018325806,0.8109065294265747,-0.36291828751564026
1774159865020310300,16.523310302734377,0.5081079602241516,1.1058878898620605,-0.2633126378059387
1774159865040300000,16.543300048828126,0.4011310935020447,0.9828934669494629,0.09509158134460449
1774159865060290300,16.563290283203123,0.1836530566215515,0.845878541469574,0.34336942434310913
1774159865080281300,16.58328125,0.11936230957508087,1.107346534729004,0.2752324938774109
1774159865100271000,16.60327099609375,-0.02446158602833748,1.3137098550796509,0.03447592630982399
1774159865120261000,16.62326123046875,-0.16560059785842896,1.7435861825942993,-0.03305784612894058
1774159865140251100,16.643251220703124,-0.3372825086116791,2.07769775390625,0.055132925510406494
1774159865160242400,16.663242431640626,-0.395490437746048,1.9137626886367798,0.0737287700176239
1774159865180232200,16.683232177734375,-0.32450351119041443,1.5553698539733887,0.004019660875201225
1774159865200222200,16.70322216796875,-0.3854822814464569,1.1891824007034302,0.1330685168504715
1774159865220213200,16.723213134765626,-0.4627646207809448,1.01983642578125,0.28226664662361145
1774159865240203300,16.743203369140623,-0.5329602956771851,1.0527232885360718,0.23608329892158508
1774159865260193000,16.763193115234376,-0.586682915687561,1.0494719743728638,0.15574483573436737
1774159865280183600,16.78318359375,-0.5834065079689026,0.916918158531189,0.06526225805282593
1774159865300174600,16.803174560546875,-0.5524863600730896,0.7337112426757812,-0.01212607603520155
1774159865320164400,16.823164306640624,-0.5239013433456421,0.7073049545288086,-0.013477467931807041
1774159865340154400,16.843154296875,-0.49038416147232056,0.6942917704582214,-0.038026366382837296
1774159865360144400,16.863144287109375,-0.42357611656188965,0.5449054837226868,-0.12579594552516937
1774159865380135400,16.883135498046876,-0.329302579164505,0.3785874843597412,-0.17598487436771393
1774159865400125400,16.90312548828125,-0.22858434915542603,0.24016216397285461,-0.16371013224124908
1774159865420115500,16.923115478515626,-0.15209493041038513,0.11311312019824982,-0.17489205300807953
1774159865440106500,16.9431064453125,-0.05553564801812172,-0.045998264104127884,-0.22338911890983582
1774159865460096300,16.96309619140625,0.04947957396507263,-0.11888742446899414,-0.2594327926635742
1774159865480086500,16.98308642578125,0.11606301367282867,-0.1588030904531479,-0.2597258687019348
1774159865500076500,17.00307666015625,0.15866205096244812,-0.19120833277702332,-0.2371135950088501
1774159865520067300,17.0230673828125,0.216739684343338,-0.28284358978271484,-0.38512781262397766
1774159865540057300,17.043057373046874,0.33015429973602295,-0.15781742334365845,-0.5983381867408752
1774159865560047400,17.06304736328125,0.4774569272994995,-0.17413568496704102,-0.974444568157196
1774159865580037400,17.083037353515625,0.4771078824996948,0.0018536343704909086,-0.9445305466651917
1774159865600028400,17.1030283203125,0.5113730430603027,0.4139443337917328,-0.31096503138542175
1774159865620018400,17.123018310546875,0.43547797203063965,-0.5160766839981079,0.17814277112483978
1774159865640008400,17.143008544921877,0.35077017545700073,-1.0761436223983765,0.2921346127986908
1774159865659998500,17.16299853515625,0.14518603682518005,-1.3426837921142578,0.047979485243558884
1774159865679989500,17.182989501953124,-0.014883975498378277,-1.100509762763977,0.028672879561781883
1774159865699979500,17.2029794921875,-0.07979097217321396,-0.7156515717506409,0.10941862314939499
1774159865719969500,17.222969482421874,0.08950262516736984,-0.5109511017799377,-0.04481955245137215
1774159865739960300,17.242960205078123,0.11044551432132721,-0.5213580131530762,-0.06669797003269196
1774159865759950300,17.262950439453125,0.18085798621177673,-0.6067952513694763,-0.0025980458594858646
1774159865779940400,17.2829404296875,0.3319811224937439,-0.7539920806884766,0.023652642965316772
1774159865799930600,17.3029306640625,0.3911556005477905,-0.9369153380393982,0.014104766771197319
1774159865819921400,17.32292138671875,0.3578241467475891,-0.7271407246589661,0.064277783036232
1774159865839911400,17.342911376953126,0.2835976183414459,-0.5232328772544861,0.19518859684467316
1774159865859901400,17.3629013671875,0.20752716064453125,-0.4321448504924774,0.2532111406326294
1774159865879891500,17.382891357421876,0.14886635541915894,-0.3472188711166382,0.22424396872520447
1774159865899882500,17.402882568359374,0.06402306258678436,-0.20177967846393585,0.17709165811538696
1774159865919872500,17.42287255859375,0.01007512304931879,-0.08064588904380798,0.15463221073150635
1774159865939862500,17.442862548828124,-0.04968482628464699,-0.0667581781744957,0.1653030514717102
1774159865959852500,17.4628525390625,-0.13132429122924805,-0.03128113970160484,0.1731995940208435
1774159865979843300,17.48284326171875,-0.19090107083320618,0.1459072232246399,0.15237687528133392
1774159865999833600,17.50283349609375,-0.2102554440498352,0.32755669951438904,0.15590743720531464
1774159866019823600,17.52282373046875,-0.20584329962730408,0.4376088082790375,0.15386530756950378
1774159866039813600,17.542813720703126,-0.17945891618728638,0.4813750386238098,0.15587031841278076
1774159866059804400,17.562804443359376,-0.15508992969989777,0.5053471922874451,0.15356451272964478
1774159866079794400,17.58279443359375,-0.1322648525238037,0.5378085970878601,0.12827487289905548
1774159866099784400,17.602784423828126,-0.09877890348434448,0.5221498012542725,0.06863947212696075
1774159866119775500,17.622775390625,-0.0710032731294632,0.46354198455810547,-0.0016401067841798067
1774159866139765500,17.642765625,-0.06674139946699142,0.4009438455104828,-0.05594771355390549
1774159866159755500,17.662755615234374,-0.05127706751227379,0.3962264060974121,-0.08825386315584183
1774159866179745500,17.68274560546875,0.009004204533994198,0.441467821598053,-0.15177570283412933
1774159866199736300,17.702736328125,0.09348404407501221,0.4401654601097107,-0.2651700973510742
1774159866219726600,17.7227265625,0.16537617146968842,0.385392427444458,-0.3117000460624695
1774159866239716600,17.742716552734375,0.23515571653842926,0.5418686866760254,-0.2927073836326599
1774159866259706600,17.76270654296875,0.30012279748916626,1.1135073900222778,-0.23189343512058258
1774159866279697200,17.782697265625,0.18675798177719116,0.9925208687782288,-0.10247979313135147
1774159866299687200,17.802687255859375,0.10677419602870941,0.5625090599060059,0.04492750018835068
1774159866319677200,17.82267724609375,0.0730900764465332,0.7107271552085876,0.15549547970294952
1774159866339667200,17.842667236328126,-0.03629188984632492,0.8382993340492249,0.057903967797756195
1774159866359658000,17.862657958984375,-0.1777130365371704,1.2227182388305664,0.043864067643880844
1774159866379648300,17.882648193359376,-0.3135407865047455,1.6875782012939453,0.13985620439052582
1774159866399638300,17.90263818359375,-0.33546996116638184,1.3478866815567017,0.15393221378326416
1774159866419628000,17.9226279296875,-0.25022614002227783,0.42841097712516785,-0.02883266657590866
1774159866439619000,17.942619140625,-0.26460787653923035,0.35403016209602356,0.16524261236190796
1774159866459609000,17.962609130859374,-0.33698850870132446,0.5761507153511047,0.38371729850769043
1774159866479599000,17.98259912109375,-0.3878118395805359,0.4465462267398834,0.293628990650177
1774159866499590100,18.002590087890624,-0.4489019811153412,0.41211387515068054,0.2744968831539154
1774159866519580200,18.022580078125,-0.45777830481529236,0.506636381149292,0.3076300024986267
1774159866539570200,18.042570068359375,-0.399737149477005,0.5239149332046509,0.27088966965675354
1774159866559560000,18.062559814453124,-0.3466747999191284,0.40750402212142944,0.2038470059633255
1774159866579551000,18.082551025390625,-0.2607797682285309,0.29312434792518616,0.10488962382078171
1774159866599541200,18.102541259765626,-0.1996760219335556,0.23461399972438812,0.050676681101322174
1774159866619531300,18.12253125,-0.15892265737056732,0.1813993901014328,0.045353323221206665
1774159866639521000,18.14252099609375,-0.10473545640707016,0.08203442394733429,-0.012699240818619728
1774159866659512000,18.162511962890626,-0.03933484107255936,-0.0033424128778278828,-0.02013586461544037
1774159866679502000,18.182502197265624,0.014308763667941093,-0.0637643039226532,0.0027244254015386105
1774159866699492000,18.2024921875,0.03869696706533432,-0.05182769522070885,0.06688780337572098
1774159866719482000,18.222482177734374,0.03501462563872337,0.01661023125052452,0.12954537570476532
1774159866739473200,18.24247314453125,0.044115155935287476,-0.0090381670743227,0.039716847240924835
1774159866759463200,18.262463134765625,0.048311490565538406,-0.3698222041130066,-0.3198312520980835
1774159866779453000,18.282452880859374,0.0539567768573761,-0.5184941291809082,-0.5988182425498962
1774159866799443000,18.30244287109375,0.09233719855546951,-0.3810920715332031,-0.7019979953765869
1774159866819434200,18.322434326171877,0.1998339295387268,-0.24602565169334412,-0.5112356543540955
1774159866839424300,18.34242431640625,0.30144408345222473,-0.2168530523777008,-0.376127690076828
1774159866859414000,18.3624140625,0.3222532868385315,-0.768185555934906,-0.12995202839374542
1774159866879405000,18.382405029296876,0.2905599772930145,-0.842028796672821,0.019776398316025734
1774159866899395000,18.40239501953125,0.2053014636039734,-0.6998217701911926,0.052932076156139374
1774159866919385000,18.422385009765627,0.10388012230396271,-0.7020783424377441,0.08092012256383896
1774159866939375000,18.442375,0.054379675537347794,-0.7559993863105774,0.10259079933166504
1774159866959366100,18.4623662109375,0.13135311007499695,-0.5427457690238953,0.009236491285264492
1774159866979356200,18.482356201171875,0.1037413701415062,-0.5139611959457397,-0.06195777654647827
1774159866999346000,18.502345947265624,0.11551661789417267,-0.5809109807014465,-0.05704681575298309
1774159867019336000,18.5223359375,0.13598941266536713,-0.7456051111221313,-0.028636910021305084
1774159867039327200,18.5423271484375,0.16861596703529358,-0.8460858464241028,-0.01458008587360382
1774159867059317000,18.56231689453125,0.15580536425113678,-0.7323725819587708,0.02676314488053322
1774159867079307000,18.58230712890625,0.09292539954185486,-0.6739789843559265,0.050971243530511856
1774159867099297000,18.602297119140626,0.03714403510093689,-0.6021175384521484,0.07368509471416473
1774159867119288300,18.622288330078124,-0.0034834477119147778,-0.5137147307395935,0.10234058648347855
1774159867139278000,18.642278076171873,-0.045463915914297104,-0.4359501600265503,0.1053818091750145
1774159867159268000,18.66226806640625,-0.0868152603507042,-0.39699965715408325,0.1452842503786087
1774159867179258000,18.682258056640624,-0.12619648873806,-0.39808356761932373,0.16994842886924744
1774159867199249200,18.702249267578125,-0.15331847965717316,-0.37688127160072327,0.16169339418411255
1774159867219239000,18.722239013671874,-0.15267594158649445,-0.31709691882133484,0.14968031644821167
1774159867239229200,18.742229248046876,-0.1392764449119568,-0.30765292048454285,0.1286938488483429
1774159867259219200,18.76221923828125,-0.11056210845708847,-0.29258349537849426,0.08334402740001678
1774159867279210200,18.782210205078126,-0.036214325577020645,-0.22037388384342194,0.05156845226883888
1774159867299200300,18.8022001953125,0.04846322536468506,-0.19264890253543854,0.023937689140439034
1774159867319190300,18.822190185546877,0.12429922819137573,-0.15867824852466583,-0.03170466050505638
1774159867339181300,18.842181396484374,0.17490878701210022,-0.08491258323192596,-0.08195172250270844
1774159867359171000,18.862171142578124,0.17016467452049255,-0.0338149219751358,-0.06388852745294571
1774159867379161000,18.8821611328125,0.15265324711799622,-0.01198088750243187,-0.1058056578040123
1774159867399151400,18.9021513671875,0.19686678051948547,0.07675562798976898,-0.14978888630867004
1774159867419142100,18.92214208984375,0.2687891125679016,0.1761084645986557,-0.0652194395661354
1774159867439132200,18.942132080078125,0.33116257190704346,0.41235071420669556,-0.07193802297115326
1774159867459122200,18.9621220703125,0.29986143112182617,0.8103073239326477,-0.15632610023021698
1774159867479112200,18.9821123046875,0.2910257875919342,1.2597283124923706,-0.16758497059345245
1774159867499103200,19.002103271484376,0.28486907482147217,1.240967869758606,-0.06982533633708954
1774159867519093200,19.02209326171875,0.15489917993545532,0.9924904108047485,0.009907182306051254
1774159867539083300,19.042083251953127,0.11377333104610443,0.7599661350250244,0.04427218437194824
1774159867559073300,19.0620732421875,0.013645194470882416,1.00152587890625,-0.04546773061156273
1774159867579064000,19.08206396484375,-0.19249197840690613,1.3028148412704468,-0.1053905040025711
1774159867599054300,19.102054443359375,-0.29314151406288147,1.0887775421142578,-0.243255615234375
1774159867619044400,19.12204443359375,-0.24225497245788574,0.4835861027240753,-0.1767587512731552
1774159867639034400,19.142034423828125,-0.2779577970504761,0.5764557123184204,0.24082058668136597
1774159867659025200,19.162025146484375,-0.36031967401504517,0.7238727807998657,0.29787829518318176
1774159867679015200,19.18201513671875,-0.40368661284446716,0.5736353397369385,0.1592111885547638
1774159867699005200,19.202005126953125,-0.4935207664966583,0.5477792024612427,0.169725701212883
1774159867718995500,19.221995361328126,-0.47654712200164795,0.7237619161605835,0.17282310128211975
1774159867738986200,19.241986328125,-0.41222885251045227,0.8231833577156067,0.15792123973369598
1774159867758976300,19.261976318359373,-0.38166144490242004,0.742286741733551,0.16713061928749084
1774159867778966300,19.28196630859375,-0.31693965196609497,0.6368153095245361,0.15173333883285522
1774159867798957000,19.30195703125,-0.2320348620414734,0.6494770646095276,0.12660911679267883
1774159867818947300,19.321947265625,-0.15153859555721283,0.5843418836593628,0.048191312700510025
1774159867838937300,19.341937255859374,-0.0792882889509201,0.46976277232170105,-0.004654183052480221
1774159867858927400,19.36192724609375,0.007033222354948521,0.21861745417118073,-0.03897592052817345
1774159867878918100,19.381918212890625,0.09202436357736588,-0.17073598504066467,-0.10054262727499008
1774159867898908200,19.401908203125,0.16992518305778503,-0.4501952528953552,-0.10583468526601791
1774159867918898200,19.421898193359375,0.20198635756969452,-0.4116717278957367,-0.0073671648278832436
1774159867938888200,19.44188818359375,0.21556764841079712,-0.21330596506595612,-0.15182942152023315
1774159867958879200,19.461879150390626,0.2170065939426422,-0.11017820239067078,-0.4091915190219879
1774159867978869200,19.481869140625,0.1819469928741455,-0.04616571590304375,-0.5123876333236694
1774159867998859300,19.501859375,0.15657982230186462,-0.3756515085697174,-0.681609034538269
1774159868018849000,19.52184912109375,0.14188067615032196,0.06202872842550278,-0.5199286937713623
1774159868038840300,19.54184033203125,0.11675970256328583,0.324116975069046,-0.3604331314563751
1774159868058830300,19.561830322265624,-0.011498857289552689,0.06916206330060959,-0.08207056671380997
1774159868078820400,19.5818203125,-0.04676219820976257,-0.19901564717292786,0.2705111503601074
1774159868098810000,19.60181005859375,-0.12102197110652924,-0.40357235074043274,0.43421533703804016
1774159868118801200,19.62180126953125,-0.2567054331302643,-0.5121899843215942,0.46663451194763184
1774159868138791400,19.64179150390625,-0.38901054859161377,-0.6266632080078125,0.4232610762119293
1774159868158781200,19.66178125,-0.38283810019493103,-0.6253066062927246,0.26815927028656006
1774159868178771200,19.681771240234376,-0.1892603039741516,-0.4000525176525116,0.06816703081130981
1774159868198762200,19.70176220703125,-0.0100717693567276,-0.27217522263526917,-0.0638173520565033
1774159868218752300,19.721752197265626,0.15785744786262512,-0.8104275465011597,0.01996242254972458
1774159868238742000,19.741741943359376,0.2820647060871124,-1.4719001054763794,0.15668100118637085
1774159868258732300,19.761732177734373,0.37105104327201843,-1.7494375705718994,0.22552116215229034
1774159868278723300,19.781723388671875,0.4340824484825134,-1.3391170501708984,0.08921433985233307
1774159868298712800,19.801712890625,0.34636440873146057,-0.9582808017730713,0.022078484296798706
1774159868318702600,19.82170263671875,0.22262506186962128,-0.7954878211021423,0.006828016601502895
1774159868338692600,19.841692626953126,0.14440323412418365,-0.5713289976119995,-0.03589840978384018
1774159868358684000,19.861683837890624,0.1576404720544815,-0.286163866519928,-0.06888890266418457
1774159868378673700,19.881673583984377,0.17760689556598663,-0.09788044542074203,-0.041171446442604065
1774159868398663700,19.90166357421875,0.16053274273872375,-0.08177221566438675,-0.0021594231948256493
1774159868418653700,19.92165380859375,0.08393119275569916,-0.08113516867160797,0.044097498059272766
1774159868438644700,19.941644775390625,0.022753413766622543,-0.005718797445297241,0.05957646295428276
1774159868458634500,19.961634521484374,-0.020945752039551735,0.1149178147315979,0.0741865485906601
1774159868478624800,19.981624755859375,-0.017941581085324287,0.23483838140964508,0.10146500915288925
1774159868498615800,20.00161572265625,0.0030067889019846916,0.3572206199169159,0.10833470523357391
1774159868518605800,20.021605712890626,0.035578854382038116,0.4513590931892395,0.06318831443786621
1774159868538595600,20.041595703125,0.05227349326014519,0.5537703633308411,0.014232845976948738
1774159868558585600,20.061585693359376,0.07069560885429382,0.7028815150260925,-0.05724687501788139
1774159868578577000,20.081576904296874,0.15105748176574707,0.5792286396026611,-0.0008480825927108526
1774159868598566700,20.101566650390627,0.2414432168006897,0.5583463311195374,0.1179487332701683
1774159868618556700,20.121556640625,0.20431414246559143,0.9524926543235779,0.007620644755661488
1774159868638546700,20.141546630859374,0.08806665241718292,1.4586576223373413,-0.13380855321884155
1774159868658537700,20.161537841796875,-0.01164165697991848,1.5897693634033203,-0.046217430382966995
1774159868678527700,20.18152783203125,-0.027788953855633736,1.1987768411636353,0.19325391948223114
1774159868698517800,20.201517822265625,-0.030930424109101295,0.8048039674758911,0.20973524451255798
1774159868718507800,20.2215078125,-0.12675833702087402,1.0861566066741943,-0.08182710409164429
1774159868738498600,20.24149853515625,-0.111171655356884,1.093987226486206,-0.19050422310829163
1774159868758488600,20.261488525390625,-0.14757901430130005,0.6031283736228943,0.15929019451141357
1774159868778478600,20.281478515625,-0.2558789551258087,0.5833842754364014,0.23623766005039215
1774159868798468900,20.30146875,-0.2580053210258484,0.793483316898346,0.10023878514766693
1774159868818459600,20.321459716796873,-0.2735690474510193,0.6581622362136841,0.1839619129896164
1774159868838449700,20.34144970703125,-0.2579282522201538,0.5165631771087646,0.1597004532814026
1774159868858439700,20.361439697265624,-0.21473555266857147,0.4269189238548279,0.0626201406121254
1774159868878429700,20.3814296875,-0.18234799802303314,0.4255872368812561,-0.011498472653329372
1774159868898420700,20.401420654296874,-0.1715301126241684,0.4624543786048889,-0.021126406267285347
1774159868918410800,20.42141064453125,-0.18888624012470245,0.4871559739112854,-0.04837948828935623
1774159868938400800,20.44140087890625,-0.21450424194335938,0.5291191339492798,-0.12637192010879517
1774159868958390800,20.461390869140626,-0.2258482426404953,0.515655517578125,-0.11657612025737762
1774159868978381600,20.481381591796875,-0.20831292867660522,0.36874648928642273,-0.10282989591360092
1774159868998371600,20.50137158203125,-0.18246077001094818,0.2743484675884247,-0.05834190919995308
1774159869018361900,20.52136181640625,-0.1766032874584198,0.17226094007492065,0.05282485485076904
1774159869038352000,20.541351806640623,-0.15392105281352997,-0.0072580245323479176,0.13073661923408508
1774159869058342700,20.5613427734375,-0.09155808389186859,-0.35151126980781555,-0.08620170503854752
1774159869078332700,20.581332763671874,-0.05375548452138901,-1.0295192003250122,-0.5539339184761047
1774159869098322700,20.60132275390625,0.03388683497905731,-1.2198807001113892,-0.7298985123634338
1774159869118313000,20.62131298828125,0.0972515270113945,-0.5291451811790466,-0.5431767702102661
1774159869138303700,20.6413037109375,0.24655719101428986,0.10288995504379272,-0.3468190133571625
1774159869158293800,20.661293701171875,0.28536733984947205,-0.6088194847106934,-0.07910187542438507
1774159869178283800,20.68128369140625,0.32312625646591187,-1.2567923069000244,0.26999717950820923
1774159869198274600,20.701274658203126,0.12487009912729263,-1.3541104793548584,0.29979780316352844
1774159869218264800,20.721264892578127,-0.24139343202114105,-1.5924572944641113,0.23665471374988556
1774159869238254800,20.7412548828125,-0.33761271834373474,-1.3771172761917114,0.3088740110397339
1774159869258244900,20.761244873046873,-0.12993012368679047,-0.6594987511634827,0.15332217514514923
1774159869278235600,20.781235595703127,-0.040483538061380386,-0.32105180621147156,-0.07301270216703415
1774159869298225400,20.801225341796876,-0.02469755709171295,-0.4169115722179413,-0.0097085265442729
1774159869318215700,20.821215576171873,0.15348850190639496,-0.637725830078125,0.05262178182601929
1774159869338205700,20.841205810546874,0.27109310030937195,-0.7596644163131714,0.0434054471552372
1774159869358196500,20.861196533203124,0.3061254918575287,-0.5972771644592285,0.00004927581176161766
1774159869378186500,20.8811865234375,0.248749777674675,-0.3674924671649933,0.042699217796325684
1774159869398176500,20.901176513671874,0.15889714658260345,-0.4079200327396393,0.09895529597997665
1774159869418166300,20.921166259765624,0.10127254575490952,-0.4480843245983124,0.09580715745687485
1774159869438157600,20.941157470703125,0.06017729640007019,-0.2632111608982086,0.0990750640630722
1774159869458147600,20.961147705078126,0.06377105414867401,-0.040399737656116486,0.1140054240822792
1774159869478137600,20.9811376953125,0.04917346313595772,0.1104307770729065,0.15280896425247192
1774159869498127400,21.00112744140625,-0.03479378670454025,0.22890007495880127,0.09650535136461258
1774159869518118700,21.02111865234375,-0.09300009906291962,0.47975975275039673,0.0926617681980133
1774159869538108700,21.041108642578124,-0.1184169352054596,0.5671007037162781,0.06610758602619171
1774159869558098400,21.061098388671876,-0.08589985966682434,0.6648667454719543,0.10730772465467453
1774159869578088400,21.08108837890625,-0.026726005598902702,0.7704837322235107,0.17444728314876556
1774159869598079500,21.10107958984375,0.05779706686735153,0.7893885374069214,0.15674829483032227
1774159869618069500,21.121069580078125,0.10880181193351746,0.6036184430122375,0.22925496101379395
1774159869638059500,21.1410595703125,0.11347611248493195,0.30834484100341797,0.20828327536582947
1774159869658049500,21.161049560546875,0.1662500500679016,-0.04143168032169342,0.004793182481080294
1774159869678040600,21.18104052734375,0.29077163338661194,-0.07407958060503006,-0.18999917805194855
1774159869698030600,21.201030517578126,0.39557453989982605,0.3164140582084656,-0.26037177443504333
1774159869718020400,21.221020263671875,0.6392467617988586,0.7290867567062378,-0.40677905082702637
1774159869738010400,21.24101025390625,0.6679468154907227,1.0511648654937744,-0.49437862634658813
1774159869758001700,21.261001708984374,0.5841858983039856,1.1905847787857056,-0.43932560086250305
1774159869777991400,21.280991455078127,0.44960644841194153,1.5359917879104614,-0.2507183849811554
1774159869797981400,21.3009814453125,0.29699864983558655,1.504225254058838,-0.035759393125772476
1774159869817972500,21.320972412109374,0.12102016061544418,1.0830645561218262,0.2774028182029724
1774159869837962800,21.340962646484375,-0.10837895423173904,0.9106801748275757,0.43522173166275024
1774159869857952500,21.360952392578124,-0.34642836451530457,1.0307579040527344,0.36516058444976807
1774159869877942500,21.380942626953125,-0.6078438758850098,0.31369611620903015,-0.07225652039051056
1774159869897933600,21.40093359375,-0.5987610816955566,0.047382548451423645,-0.16090522706508636
1774159869917923300,21.42092333984375,-0.5509850382804871,0.5290011167526245,0.18887391686439514
1774159869937913300,21.440913330078125,-0.5641037821769714,0.8653082847595215,0.25421932339668274
1774159869957903600,21.460903564453126,-0.5324360132217407,0.9561827778816223,0.17443455755710602
1774159869977894700,21.480894775390624,-0.4615834653377533,1.145853877067566,0.23996801674365997
1774159869997884400,21.500884521484377,-0.36740735173225403,1.3087811470031738,0.36701494455337524
1774159870017874400,21.52087451171875,-0.30300891399383545,1.2714002132415771,0.520794153213501
1774159870037864400,21.540864501953124,-0.2751639485359192,0.8599157929420471,0.5924233198165894
1774159870057855500,21.56085546875,-0.25768569111824036,0.4402163326740265,0.5317174196243286
1774159870077845500,21.580845458984374,-0.22674748301506042,0.2904963493347168,0.4392201900482178
1774159870097835500,21.60083544921875,-0.18604883551597595,0.19655543565750122,0.3716229796409607
1774159870117825500,21.620825439453125,-0.1438819169998169,0.3331926763057709,0.25791940093040466
1774159870137816300,21.64081640625,-0.10809630155563354,0.3792785108089447,0.17452901601791382
1774159870157806300,21.660806396484375,-0.0565304197371006,0.29499539732933044,0.12792983651161194
1774159870177796600,21.680796630859376,-0.014626533724367619,0.15442276000976562,0.0665089562535286
1774159870197786600,21.70078662109375,-0.004576670937240124,0.05434202775359154,-0.017445044592022896
1774159870217777400,21.72077734375,-0.04664989560842514,0.001232585171237588,-0.10100895166397095
1774159870237767400,21.740767333984376,-0.09016624093055725,0.06271827220916748,-0.08873997628688812
1774159870257757400,21.76075732421875,-0.13836358487606049,0.19849851727485657,-0.08087720721960068
1774159870277747500,21.78074755859375,-0.15047889947891235,0.2060244381427765,-0.19044868648052216
1774159870297739500,21.800739501953124,-0.1567733883857727,0.08290897309780121,-0.3559418320655823
1774159870317729500,21.8207294921875,-0.1477362960577011,-0.05234434828162193,-0.5458818674087524
1774159870337719600,21.840719482421875,-0.11939265578985214,-0.14058734476566315,-0.5620055198669434
1774159870357709300,21.860709228515624,-0.03171384707093239,-0.4822787046432495,-0.3301062285900116
1774159870377700400,21.880700439453125,-0.10378431528806686,0.04436590522527695,0.5313968658447266
1774159870397690400,21.9006904296875,-0.2543967366218567,-0.017372287809848785,0.6340562701225281
1774159870417680400,21.920680419921876,-0.13241487741470337,-0.8602592945098877,-0.2429448366165161
1774159870437670400,21.94067041015625,0.0073829954490065575,-0.8394573330879211,-0.32247161865234375
1774159870457661400,21.960661376953126,0.032604869455099106,-0.16290383040905,0.14191477000713348
1774159870477651500,21.9806513671875,0.010388271883130074,-0.1552799642086029,0.05121948570013046
1774159870497641200,22.00064111328125,0.07571721822023392,-0.31931445002555847,-0.32249972224235535
1774159870517632500,22.020632568359375,0.12737904489040375,-0.28680577874183655,-0.5260165929794312
1774159870537622500,22.04062255859375,0.15179838240146637,-0.12038911879062653,-0.35851532220840454
1774159870557612500,22.060612548828125,0.1583506464958191,-0.004502295516431332,-0.12203966826200485
1774159870577602300,22.080602294921874,0.18358851969242096,0.05495445430278778,-0.03472822904586792
1774159870597593300,22.10059326171875,0.1578609198331833,0.14351332187652588,0.014931339770555496
1774159870617583400,22.120583251953125,0.081467404961586,0.19893890619277954,0.08273593336343765
1774159870637573400,22.140573486328126,0.000666122417896986,0.2257659137248993,0.13959521055221558
1774159870657563400,22.1605634765625,-0.027767669409513474,0.1249585673213005,0.1372540295124054
1774159870677554400,22.180554443359377,-0.03269219025969505,0.014349879696965218,0.18090975284576416
1774159870697544400,22.20054443359375,-0.012441784143447876,-0.003922607284039259,0.14851276576519012
1774159870717534200,22.2205341796875,0.03978140652179718,-0.10523499548435211,0.051397792994976044
1774159870737524200,22.240524169921876,0.11847415566444397,-0.17924700677394867,-0.02342458814382553
1774159870757515500,22.260515625,0.16990576684474945,-0.20402327179908752,0.007958030328154564
1774159870777505300,22.28050537109375,0.14312641322612762,-0.33479684591293335,0.045059684664011
1774159870797495300,22.300495361328124,0.1834278553724289,-0.47745418548583984,-0.17184506356716156
1774159870817485300,22.3204853515625,0.28732818365097046,-0.6552438735961914,-0.2608740031719208
1774159870837476600,22.3404765625,0.3432711660861969,-0.6816287040710449,-0.3759237825870514
1774159870857466400,22.36046630859375,0.4569801092147827,-0.011784877628087997,-0.440242201089859
1774159870877456400,22.380456298828125,0.5510810017585754,0.5976202487945557,-0.649517297744751
1774159870897446400,22.4004462890625,0.4859643876552582,0.9232957363128662,-0.5360581874847412
1774159870917437400,22.4204375,0.4898485243320465,0.9072747826576233,-0.37273597717285156
1774159870937427200,22.44042724609375,0.26977068185806274,0.7909727692604065,-0.117718905210495
1774159870957417500,22.46041748046875,0.11513403058052063,1.1123448610305786,0.287350058555603
1774159870977407500,22.480407470703124,-0.1304142028093338,1.2401387691497803,0.32543545961380005
1774159870997398300,22.500398193359374,-0.28501832485198975,1.5843658447265625,0.001739975530654192
1774159871017388300,22.52038818359375,-0.27217987179756165,1.7765570878982544,-0.13347482681274414
1774159871037378300,22.54037841796875,-0.28816336393356323,0.8858534097671509,-0.005091015715152025
1774159871057369300,22.560369384765625,-0.20250022411346436,0.775914192199707,0.2365882694721222
1774159871077359400,22.580359375,-0.2753554880619049,1.2328294515609741,0.41932663321495056
1774159871097349400,22.600349365234376,-0.3614640533924103,1.364271879196167,0.5541383624076843
1774159871117339400,22.62033935546875,-0.42814549803733826,1.2659107446670532,0.6341193914413452
1774159871137330200,22.640330078125,-0.42601847648620605,1.3352577686309814,0.6898095011711121
1774159871157320400,22.660320556640624,-0.3548293113708496,1.2860612869262695,0.6167472004890442
1774159871177310500,22.680310546875,-0.30981290340423584,1.1611127853393555,0.5644209384918213
1774159871197300500,22.700300537109374,-0.27682533860206604,1.1329481601715088,0.5690706372261047
1774159871217291300,22.720291259765624,-0.2329004853963852,1.0785539150238037,0.4703294038772583
1774159871237281300,22.74028125,-0.19247519969940186,1.0681160688400269,0.43163833022117615
1774159871257271300,22.760271240234374,-0.15316088497638702,1.0181891918182373,0.46874698996543884
1774159871277261600,22.780261474609375,-0.1432550847530365,0.8746560215950012,0.45763492584228516
1774159871297251600,22.80025146484375,-0.11199633777141571,0.589008092880249,0.29562684893608093
1774159871317241600,22.82024169921875,-0.08472379297018051,0.1467929482460022,0.04223625361919403
1774159871337231600,22.840231689453127,-0.1308731734752655,-0.30593615770339966,-0.15335646271705627
1774159871357221600,22.8602216796875,-0.21425168216228485,-0.4929438531398773,-0.32372215390205383
1774159871377212400,22.88021240234375,-0.26171058416366577,-0.4106772243976593,-0.43957582116127014
1774159871397202700,22.90020263671875,-0.35451051592826843,-0.3927333652973175,-0.512114405632019
1774159871417192700,22.920192626953124,-0.42060422897338867,-0.6308900713920593,-0.6965977549552917
1774159871437182700,22.9401826171875,-0.4209166169166565,-0.956522524356842,-0.9639537930488586
1774159871457173500,22.960173583984375,-0.3131617307662964,-1.2310512065887451,-1.2189592123031616
1774159871477163500,22.98016357421875,-0.16814881563186646,-1.0014724731445312,-0.8668767809867859
1774159871497153500,23.000153564453125,-0.2543187439441681,-0.5024384260177612,-0.39190682768821716
1774159871517144600,23.02014453125,-0.25162169337272644,-0.27577292919158936,-0.22593633830547333
1774159871537134600,23.040134521484376,-0.24786584079265594,-0.4177338182926178,0.010174404829740524
1774159871557124600,23.06012451171875,-0.17863225936889648,-0.8037442564964294,0.2426631599664688
1774159871577114600,23.080114501953126,-0.09170213341712952,-1.0055793523788452,0.21565759181976318
1774159871597105700,23.100105712890624,0.0008543366566300392,-1.0688329935073853,0.01646098867058754
1774159871617095700,23.120095703125,0.08750755339860916,-0.9948217868804932,-0.14083176851272583
1774159871637085700,23.140085693359374,0.0689578428864479,-0.8659314513206482,-0.08517803996801376
1774159871657075700,23.16007568359375,0.12721706926822662,-0.8825673460960388,0.05432378873229027
1774159871677066500,23.18006640625,0.18849463760852814,-1.092401385307312,0.10880224406719208
1774159871697056500,23.200056396484374,0.27413827180862427,-1.1407774686813354,0.22086933255195618
1774159871717046800,23.220046875,0.3324216306209564,-0.9637671113014221,0.3465399444103241
1774159871737036800,23.240036865234377,0.32818201184272766,-0.8540588021278381,0.4573253393173218
1774159871757027600,23.260027587890626,0.2912672460079193,-0.9230442047119141,0.501210629940033
1774159871777017600,23.280017578125,0.2666316032409668,-1.007941722869873,0.45606186985969543
1774159871797007600,23.300007568359376,0.24068868160247803,-0.9972477555274963,0.4308639466762543
1774159871816998700,23.31999853515625,0.21962270140647888,-0.9874759912490845,0.3790546953678131
1774159871836988700,23.33998876953125,0.18797922134399414,-0.9537283182144165,0.3466646075248718
1774159871856978700,23.359978759765625,0.15390516817569733,-0.8407372832298279,0.3126702308654785
1774159871876968700,23.37996875,0.15568971633911133,-0.7330143451690674,0.28374817967414856
1774159871896959500,23.39995947265625,0.1700410544872284,-0.6596315503120422,0.3015550673007965
1774159871916949800,23.41994970703125,0.18929782509803772,-0.5433573722839355,0.34425732493400574
1774159871936939800,23.439939697265626,0.2504478394985199,-0.45803192257881165,0.39458879828453064
1774159871956929800,23.4599296875,0.3372262418270111,-0.38081684708595276,0.4438823461532593
1774159871976920600,23.479920654296876,0.3978581726551056,-0.23409609496593475,0.42509332299232483
1774159871996910600,23.49991064453125,0.4813031554222107,-0.25198397040367126,0.27953580021858215
1774159872016900600,23.519900634765627,0.4921311140060425,-0.20247110724449158,0.15836039185523987
1774159872036890600,23.539890625,0.4897838830947876,-0.22399458289146423,0.06777070462703705
1774159872056881700,23.559881591796874,0.43896484375,-0.504500687122345,-0.11175509542226791
1774159872076871700,23.57987158203125,0.41124072670936584,-0.9515588283538818,-0.21002918481826782
1774159872096861700,23.59986181640625,0.4276859164237976,-0.7845766544342041,0.004420498851686716
1774159872116852500,23.6198525390625,0.43580296635627747,-0.9580704569816589,-0.035245686769485474
1774159872136842800,23.6398427734375,0.415957510471344,-0.9099286794662476,-0.04887492582201958
1774159872156832800,23.659832763671876,0.3915201425552368,-0.7326067090034485,0.028783580288290977
1774159872176822800,23.67982275390625,0.3385315239429474,-0.6196354031562805,0.022681476548314095
1774159872196813600,23.6998134765625,0.25783678889274597,-0.4912761151790619,-0.12914817035198212
1774159872216803600,23.719803466796876,0.1969795823097229,-0.3701190650463104,-0.42705878615379333
1774159872236793600,23.739793701171877,0.18725013732910156,-0.14116545021533966,-0.6445928812026978
1774159872256783600,23.75978369140625,0.26322853565216064,-0.09660331159830093,-0.7119627594947815
1774159872276774700,23.779774658203124,0.31357645988464355,-0.14620639383792877,-0.6585007905960083
1774159872296765400,23.799765380859377,0.2669905126094818,0.007334500085562468,-0.5342562794685364
1774159872316755200,23.819755126953126,0.15943534672260284,0.22717782855033875,-0.34376394748687744
1774159872336746500,23.83974658203125,0.09272477775812149,0.5661524534225464,-0.16403453052043915
1774159872356736500,23.859736572265625,-0.06631982326507568,0.7704867720603943,-0.03414803743362427
1774159872376726300,23.879726318359374,-0.2649466097354889,0.7544215321540833,0.16636744141578674
1774159872396716300,23.89971630859375,-0.4630211591720581,0.7896254062652588,0.36541375517845154
1774159872416707300,23.919707275390625,-0.6179205775260925,0.883958637714386,0.535555362701416
1774159872436697300,23.939697265625,-0.7081106305122375,1.0961462259292603,0.5970050692558289
1774159872456687400,23.959687255859375,-0.749742329120636,1.2489876747131348,0.5653082132339478
1774159872476677400,23.979677490234376,-0.7215193510055542,0.9931920766830444,0.3924780786037445
1774159872496668400,23.99966845703125,-0.6238211989402771,0.983347475528717,0.2262357771396637
1774159872516658400,24.019658447265623,-0.5089567303657532,1.081679105758667,0.2321523278951645
1774159872536648200,24.039648193359376,-0.375876247882843,0.8552848696708679,0.17637424170970917
1774159872556639500,24.059639404296874,-0.2690492272377014,0.6370102167129517,0.18552179634571075
1774159872576629500,24.07962939453125,-0.22738608717918396,0.36087149381637573,0.24651412665843964
1774159872596619300,24.099619384765624,-0.22093060612678528,0.10638564079999924,0.2612149119377136
1774159872616609300,24.119609375,-0.22440825402736664,-0.11571603268384933,0.2672106921672821
1774159872636600300,24.139600341796875,-0.20546403527259827,-0.2149023711681366,0.2012667953968048
1774159872656590300,24.15959033203125,-0.17094789445400238,-0.22779127955436707,0.0918443351984024
1774159872676580400,24.179580322265625,-0.12267378717660904,-0.20908492803573608,-0.010820576921105385
1774159872696570400,24.1995703125,-0.08266381174325943,-0.2313828021287918,-0.0911157876253128
1774159872716561400,24.2195615234375,-0.055122487246990204,-0.332738995552063,-0.17990610003471375
1774159872736551200,24.23955126953125,-0.019599348306655884,-0.45535731315612793,-0.2911132872104645
1774159872756541200,24.259541259765626,0.02495384030044079,-0.5861550569534302,-0.40725618600845337
1774159872776532500,24.279532470703124,0.0921260192990303,-0.7194192409515381,-0.5235121846199036
1774159872796522500,24.2995224609375,0.18261447548866272,-0.7960895895957947,-0.6579995155334473
1774159872816512300,24.31951220703125,0.29222288727760315,-0.8702364563941956,-0.7392804026603699
1774159872836502300,24.339502197265624,0.4333510398864746,-0.9344572424888611,-0.7355166077613831
1774159872856493300,24.359493408203125,0.44108662009239197,-0.861815333366394,-0.47138479351997375
1774159872876483300,24.3794833984375,0.4513136148452759,-1.19632089138031,-0.0921325832605362
1774159872896473300,24.399473388671876,0.3481413722038269,-1.5497792959213257,0.04010273516178131
1774159872916463400,24.41946337890625,0.1976744830608368,-1.6917941570281982,-0.11641588807106018
1774159872936454400,24.439454345703126,0.29283276200294495,-1.5542176961898804,-0.24703176319599152
1774159872956444200,24.459444091796875,0.25360235571861267,-1.110690951347351,-0.06276201456785202
1774159872976434200,24.47943408203125,0.21058182418346405,-0.9635136723518372,-0.02937767654657364
1774159872996424400,24.499424560546874,0.2907208204269409,-0.8207545280456543,-0.17068040370941162
1774159873016415200,24.519415283203124,0.35251322388648987,-0.6622892022132874,-0.17276804149150848
1774159873036405200,24.5394052734375,0.382192999124527,-0.5692928433418274,-0.12692271173000336
1774159873056395300,24.559395263671874,0.3835558295249939,-0.5471660494804382,-0.05410722270607948
1774159873076386600,24.579386474609375,0.34525877237319946,-0.4820360839366913,0.043288521468639374
