time,seconds_elapsed,z,y,x
1774158159798745600,0.05874560546875,0.134741063401103,-0.11553045923560858,-0.14016606585821137
1774158159818738400,0.078738525390625,0.16701485501825808,-0.100160163885355,-0.21936686394829302
1774158159838731500,0.0987314453125,-0.06938041021823883,0.04114975651204586,-0.24816417509391903
1774158159858721500,0.118721435546875,-0.24117490072846412,0.05421002135425806,-0.05199899424128234
1774158159878714600,0.138714599609375,-0.3019254297673702,0.28071313039064405,-0.0555939317270182
1774158159898707500,0.15870751953125,-0.181959326171875,0.5878180086225271,-0.16197846828624604
1774158159918699500,0.178699462890625,-0.2753612479686737,0.6376695425063371,-0.1069178214520216
1774158159938692400,0.1986923828125,-0.5678554170459509,0.45793666021227836,-0.005215944550000131
1774158159958684400,0.218684326171875,-0.836149210846424,1.1557976365700364,-0.623763693685457
1774158159978677500,0.238677490234375,-1.1721464215636253,0.356684317176044,-0.5820390598949045
1774158159998670300,0.25867041015625,-1.25472007535398,0.09169336431324482,-0.43538339455537495
1774158160018662400,0.278662353515625,-0.7224281391203403,0.7808955256581306,-0.28536241750121116
1774158160038655500,0.298655517578125,-0.14429332012236118,0.78585753197968,-0.0596055967874825
1774158160058648300,0.3186484375,0.24455986699163912,0.42140754923820495,-0.225532364308089
1774158160078640400,0.338640380859375,0.4927461077868938,0.03100654816031456,-0.19629925556108355
1774158160098633500,0.358633544921875,0.3976443963348865,-0.1832353374570608,0.01584887264743447
1774158160118626300,0.378626220703125,0.6369996804207563,-0.24437661937922237,0.0999786698386073
1774158160138618400,0.398618408203125,0.5741513023197651,-0.4453270617470145,0.34622239826396106
1774158160158611500,0.418611572265625,0.20633096636235712,-0.4776096211925149,0.7195926234334706
1774158160178603500,0.438603515625,-0.11232172632217406,-0.544061284482479,0.7922109926596284
1774158160198596400,0.458596435546875,-0.1813479162752628,-0.5484244481280446,0.5109788068309427
1774158160218589400,0.47858935546875,0.2902051813572645,-0.8624600024059415,0.43949119520038366
1774158160238581500,0.49858154296875,0.2869201683372259,-0.9169894649729132,0.46055473375618455
1774158160258574600,0.51857470703125,-0.07764847234785556,-0.21865473362356422,0.34359774884879585
1774158160278567700,0.538567626953125,-0.20137188265025616,0.19122253681868315,-0.042053719614446164
1774158160298559500,0.5585595703125,-0.6396516562342643,-0.34959523569792506,-0.18413228629678488
1774158160318552600,0.578552490234375,-0.7278624391287565,-0.33397301141321656,-0.17996143035292625
1774158160338545700,0.598545654296875,-0.19325404264628887,0.14977394349053502,-0.21663784084320067
1774158160358537500,0.618537353515625,0.0752069244146347,0.16076339340806006,-0.26751637968719005
1774158160378530600,0.638530517578125,0.19768705665767192,0.057204819256067276,-0.30668168438374993
1774158160398522400,0.6585224609375,0.3107143009006977,0.4416806680686772,-0.2778334833011031
1774158160418515500,0.678515380859375,0.4269470631867647,0.5251425028704106,-0.2827019661203027
1774158160438508500,0.698508544921875,0.8324363278031349,0.18438947592824698,-0.18397972608357666
1774158160458500400,0.718500244140625,1.2240899592906236,-0.14682050051242113,-0.13084551726728677
1774158160478493400,0.738493408203125,1.4506769472181795,-0.39262861399948595,0.11831482925713062
1774158160498486500,0.758486572265625,1.6732412555009126,-0.2143421311214566,0.2439084173455834
1774158160518478300,0.778478271484375,1.5830390065282582,-0.017767419619858265,0.17048866860866546
1774158160538471400,0.798471435546875,1.3834434859007596,-0.0936766470849514,0.10658201362639665
1774158160558463200,0.818463134765625,1.2140379363536835,-0.03007745061665773,0.024080840550363063
1774158160578456300,0.838456298828125,0.7348679339766502,-0.2796028310611844,-0.1095014082044363
1774158160598449400,0.858449462890625,0.23835925878584382,-0.267383985479176,-0.4644266067534685
1774158160618441200,0.878441162109375,-0.26337270401120183,-0.04009264867454767,-0.8122653541728854
1774158160638434300,0.898434326171875,-0.43842707310020923,0.06931289793998002,-0.9149062289580703
1774158160658427400,0.918427490234375,-0.6043032794773578,0.2682853182330727,-0.7783803279668092
1774158160678419500,0.93841943359375,-0.020307459491491316,0.31415625804811714,-0.6241627029404043
1774158160698412500,0.95841259765625,0.658324792522192,0.08621288707554339,-0.38252924478948114
1774158160718405400,0.9784052734375,1.0176602087289095,-0.3455798625767231,-0.21538433365076778
1774158160738397400,0.9983974609375,1.051104213169217,-0.6385717520430684,-0.1634147846996784
1774158160758390500,1.018390625,0.5189572383642196,-0.33869244115054603,-0.22404402544647453
1774158160778382600,1.038382568359375,0.04879296474158763,-0.00208615862429142,-0.02638940975368023
1774158160798375400,1.05837548828125,-0.0691156218022108,0.3122004478052258,0.13096154486238956
1774158160818368500,1.078368408203125,-0.1606406438112259,-0.13378215524107218,0.13572627504616974
1774158160838360600,1.098360595703125,-0.3796925600588322,-0.587040594509244,0.13204291035830973
1774158160858354200,1.118354248046875,-0.5246329459130764,-0.18685235891044139,0.20284107841998336
1774158160878347300,1.13834716796875,-0.4161374998807907,0.45466596797853703,0.27170184867829084
1774158160898339000,1.158339111328125,-0.2356950080126524,0.5678770443558693,0.2621633282214403
1774158160918332200,1.178332275390625,-0.05800035354793071,0.5165761884465814,0.0038429391637444495
1774158160938324000,1.198323974609375,-0.0818517692565918,0.36201749489754437,-0.15862199746519326
1774158160958317000,1.218317138671875,-0.25139351240396496,0.0022767127603292464,-0.4331260440826416
1774158160978310100,1.23831005859375,-0.12688275111615657,0.05664046337157488,-0.6345680693596601
1774158160998302000,1.258302001953125,0.2049246066957712,-0.005216857865452766,-0.6440539828464389
1774158161018295000,1.278294921875,0.45710020938813684,-0.20495003339797258,-0.5351359274879097
1774158161038288100,1.2982880859375,0.47336686905622477,-0.24309417835325,-0.4089662930771708
1774158161058280000,1.318280029296875,0.032445056530833245,0.0487312976822257,-0.4221411242097616
1774158161078273000,1.33827294921875,-0.5653887346714734,0.3076899846434593,-0.31474925550520416
1774158161098265000,1.35826513671875,-0.498034861844778,0.913455737888813,-0.052740533323585984
1774158161118258000,1.3782578125,-0.09124795863330364,0.9480693706303834,0.18831512493938207
1774158161138251000,1.3982509765625,0.23660744668245315,0.5228142060533165,0.27232114962041376
1774158161158243000,1.4182431640625,0.38144904833734034,0.3923661636710167,0.36818683118224144
1774158161178236000,1.43823583984375,0.3184276517570019,0.3412856725141406,0.5074941795855761
1774158161198229000,1.45822900390625,0.2927706479310989,0.27671090901196,0.5456245882764459
1774158161218221300,1.47822119140625,-0.12524842791259289,-0.07236556350886822,0.57566199914366
1774158161238214000,1.4982138671875,-0.36963761451244354,-0.18999270276278257,0.8121540027529001
1774158161258207000,1.51820703125,-0.2446352703154087,0.03722673784941435,1.10467126044482
1774158161278199000,1.538198974609375,-0.011575871503353118,0.1995589880093932,1.2081260819613933
1774158161298192100,1.558192138671875,-0.27052374480962754,-0.03269756998717785,0.95646836566329
1774158161318184200,1.57818408203125,-0.6504489445805549,-0.15159370626360177,0.6213482300415635
1774158161338177000,1.598177001953125,-0.5560825616657734,-0.40902679109275336,0.5113587460592389
1774158161358170000,1.618170166015625,0.060420274171233176,-0.3927896497800946,0.40212709470689295
1774158161378162200,1.638162109375,0.41816345275044436,-0.6198591605275869,0.2847980616167188
1774158161398155000,1.658155029296875,0.2901829695254564,-0.7115902265027165,0.02197831531316042
1774158161418148000,1.678148193359375,-0.0040951603591442105,-0.6002560499131679,-0.1519496800944209
1774158161438140200,1.69814013671875,0.0643535219669342,-0.6035781800732016,-0.12676876934766768
1774158161458133000,1.718133056640625,0.0835071352481842,-0.4253726534768939,-0.030638299369812008
1774158161478125000,1.738125,0.24914953286945818,-0.41048429642468687,0.047561669380962845
1774158161498118100,1.7581181640625,0.31474574837386604,-0.23805852227360008,0.07126753913909196
1774158161518111000,1.778111083984375,-0.018635726886987686,-0.26663988911360503,0.10468787044286727
1774158161538103000,1.79810302734375,-0.2949409777075052,-0.06315525209307671,0.13111585864126682
1774158161558096100,1.81809619140625,-0.3128916449397802,0.5513771604537964,0.12016776364743709
1774158161578089000,1.8380888671875,-0.3897194485545158,1.134643497121334,-0.14925181931257248
1774158161598081000,1.8580810546875,-0.5298433740377426,1.3089008706137537,-0.3961357453376054
1774158161618074000,1.87807421875,-0.5681599529504776,1.3736843084305523,-0.4940124744608998
1774158161638066200,1.898066162109375,-0.31361703660488127,1.5091522248014806,-0.5824515131533146
1774158161658059000,1.91805908203125,0.9542238016068935,0.6043707917556166,-0.7678063269823789
1774158161678052000,1.938052001953125,1.174239594450593,-0.12911182534247637,-0.8779001481220126
1774158161698044200,1.958044189453125,0.9579027823805808,-0.6220414730027317,-0.7938283647283911
1774158161718037200,1.978037353515625,0.8063152135968208,-0.8803697531059383,-0.5400473726660013
1774158161738030000,1.998030029296875,0.4395709824383259,-0.7470666135534644,-0.34694413666725155
1774158161758022100,2.018022216796875,-0.11349778436422348,-0.6810401899382471,-0.11588906341493128
1774158161778015200,2.03801513671875,-0.6109282505750656,-0.6010659049913287,0.2066609289690852
1774158161798007000,2.058007080078125,-0.7432207517802715,-0.2786544442951679,0.5996057693108916
1774158161818000100,2.078000244140625,-0.5377215600669384,-0.0930751740604639,0.9546817745074629
1774158161837993200,2.0979931640625,-0.43910102683901786,-0.21106939306110142,1.198378302668035
1774158161857984500,2.117984619140625,-0.3675029405713081,-0.31823592857718463,1.176935993927717
1774158161877977600,2.1379775390625,-0.757274411574006,-0.3416767176583409,0.9039207245633005
1774158161897970700,2.157970703125,-1.2399936308652162,0.17670096725225448,0.6922720703095198
1774158161917962500,2.17796240234375,-1.1552882257431745,1.2180626618251205,0.6845230636179447
1774158161937955600,2.19795556640625,-0.7581050171792507,1.741838990908861,0.7732567013427615
1774158161957948700,2.21794873046875,-0.5053630127757788,1.2683414812102913,0.50124827093333
1774158161977940500,2.2379404296875,0.13758359335064888,0.44125119061022994,0.3491989298567176
1774158161997933600,2.25793359375,0.5716530557632445,-0.2987546907767653,0.16225655457526444
1774158162017925600,2.277925537109375,0.23765841704010962,-0.9123603438675403,-0.04387625886648893
1774158162037918500,2.29791845703125,-0.3904161986470222,-1.3113172841057181,-0.05831979476064443
1774158162057911600,2.31791162109375,-0.6669207714319229,-1.213494330996275,0.06905716961324214
1774158162077904000,2.33790380859375,-0.4237865533292293,-1.0878738549008964,0.4736570841744542
1774158162097896400,2.357896484375,-0.27203531841635703,-0.7356140761688351,0.6058633684009314
1774158162117889500,2.3778896484375,-0.4915782330513,-0.4655608714804053,0.791956141115725
1774158162137881900,2.3978818359375,-0.5436556262910366,-0.3174856947317719,0.9201046743839979
1774158162157874700,2.417874755859375,-0.7023784537822008,-0.10982961724549531,0.9149918614149093
1774158162177866800,2.43786669921875,-0.5816115551978349,-0.026954934681951998,0.817073923498392
1774158162197859800,2.45785986328125,-0.47534722921848294,-0.15911679524481295,0.6376452848479152
1774158162217852700,2.477852783203125,-0.4340501731902361,-0.10311930595189332,0.3203656340822577
1774158162237844700,2.4978447265625,-0.5428150838136673,-0.15736878253370523,0.15264175401180982
1774158162257837800,2.517837890625,-0.7188590484619141,0.02655278362184763,0.00343728097230196
1774158162277830700,2.53783056640625,-0.5914326919883489,0.2938122659385204,-0.18412118038088082
1774158162297822700,2.55782275390625,0.03792670281231403,0.1595052100405097,-0.23141923038959503
1774158162317815600,2.577815673828125,0.7396089910238981,-0.37017069847583767,0.14003858528733254
1774158162337807600,2.5978076171875,0.7193921324253082,-0.5177767964079976,0.53147068297863
1774158162357800700,2.61780078125,0.6458148550391197,-0.11197218223214149,0.4236579585134983
1774158162377793500,2.63779345703125,0.21705635851621627,0.004085223487019538,0.3205044580310583
1774158162397785600,2.65778564453125,0.5512374597221613,0.20595658009201287,0.4140829054385423
1774158162417778700,2.67777880859375,0.4138005813658237,1.127504146760702,0.4848346040099859
1774158162437771500,2.697771484375,0.0804699595093727,1.1076211962915956,-0.13722586595416067
1774158162457763600,2.717763671875,-0.43289632697999475,0.4598221816979348,-0.29629063875079154
1774158162477756700,2.737756591796875,-0.46786534903049465,0.23421675215363502,-0.18482289890944956
1774158162497748700,2.757748779296875,0.07588555432856083,0.7726873770222067,-0.72925477026999
1774158162517741600,2.777741455078125,1.4741840795338153,0.9902385333180427,-0.6733768157035112
1774158162537734700,2.797734619140625,2.2327432702213525,0.5432352089218795,-0.5352765050023793
1774158162557726700,2.817726806640625,1.8454092554986476,0.007336480367928743,-0.6393026966661215
1774158162577719800,2.8377197265625,1.136042258003354,0.10461612038090824,-1.1527367876946926
1774158162597712600,2.857712646484375,0.6697171241521835,-0.14129735317677258,-1.4339245498597621
1774158162617704700,2.87770458984375,0.14743570980131626,-0.16324761143922806,-1.0008359151780604
1774158162637697800,2.89769775390625,0.30848025823831554,0.15060191874727605,-0.9862857040390371
1774158162657689600,2.917689697265625,0.7075730998158455,0.21299203168675301,-0.4062941512584686
1774158162677682700,2.9376826171875,0.8312883268117904,0.16159487579613924,-0.2209890217900276
1774158162697675800,2.95767578125,0.7495593071520328,0.1700023463964462,0.06685352208912372
1774158162717667600,2.97766748046875,0.2594908941417932,0.35536110574826596,0.1321647831723094
1774158162737660700,2.99766064453125,-0.20966391017735003,0.614774989131093,-0.045615503749251364
1774158162757653800,3.01765380859375,-0.14612053554952142,0.5632299492023884,-0.29196020833104847
1774158162777645600,3.0376455078125,0.20515023214519024,0.02499751700386405,-0.16379180131852625
1774158162797638700,3.057638671875,-0.23875439558327197,-0.041539413416758174,-0.25311259128153324
1774158162817630700,3.077630615234375,-0.4776917465180158,0.014980857641249894,-0.4909110013142228
1774158162837623600,3.09762353515625,-0.3049497460246086,0.10174582564160227,-0.5230374934151768
1774158162857616600,3.11761669921875,0.15138006351292133,0.2029195504836738,-0.3217760854020715
1774158162877608400,3.1376083984375,0.1848474488288164,-0.23775164828151463,-0.22315613669604062
1774158162897601500,3.1576015625,0.3864648306727409,-0.32075192998610436,-0.3500505782499909
1774158162917594600,3.1775947265625,0.5685948372364044,-0.37499176195673645,-0.2553518946409225
1774158162937586400,3.19758642578125,0.40853228557407856,-0.4727206070419401,0.023571429723501205
1774158162957579500,3.21757958984375,0.04117898260653019,-0.22572938471753148,0.10079144752621651
1774158162977571800,3.23757177734375,-0.19131635258197782,-0.033443018059618766,0.11062076762318611
1774158162997564700,3.257564697265625,-0.5844400566220284,0.4987482708111405,0.32277970948666335
1774158163017557500,3.2775576171875,-0.9472370114594697,0.44905565381608903,-0.14061550839245318
1774158163037549800,3.2975498046875,-0.10305471628308295,-0.07675035446435213,0.28452947380840776
1774158163057542700,3.317542724609375,0.5625841986447573,0.32066761270351707,0.9351815397456288
1774158163077535700,3.33753564453125,0.3991343426316976,0.9535893030956387,0.9363345091730355
1774158163097527800,3.35752783203125,-0.16361235309839248,0.562813185095042,0.34131314504295585
1774158163117520600,3.377520751953125,0.3612953181028366,-0.38847617049515243,0.30187574540674683
1774158163137512700,3.3975126953125,-0.010137363132834434,-0.6264730257093906,-0.011615618991851807
1774158163157505800,3.417505859375,-0.4080196598768234,-0.20504750242307782,-0.22485884896069763
1774158163177498600,3.43749853515625,-0.0035381109982728955,0.39413492690920826,-0.17661299670785666
1774158163197490700,3.45749072265625,0.11310440113246441,0.22506138579547405,0.10787672961205244
1774158163217483800,3.47748388671875,-0.04878711952269077,-0.5047705998405814,0.0987216555148363
1774158163237476600,3.4974765625,0.49888300310671324,-0.3277221343249082,-0.011441723729670047
1774158163257468700,3.51746875,1.1912626254439354,-0.19748072043061254,-0.07159194878786802
1774158163277461800,3.537461669921875,0.3158125008225441,-0.39200281025134026,-0.09946370605379343
1774158163297453600,3.55745361328125,-0.5386836830973625,0.028960063959285614,-0.3566737957820296
1774158163317446700,3.57744677734375,-1.3352572548806667,0.8989784458555281,-0.20419921503067015
1774158163337439500,3.597439453125,-0.7000380281358957,0.9737270320434123,0.1169300969004631
1774158163357431600,3.617431640625,0.1718552807867527,0.018232845174521208,0.12686989163458345
1774158163377424600,3.637424560546875,-0.13585457760095596,-0.22040523055270314,-0.19176526539325714
1774158163397417500,3.65741748046875,-0.2831488331049681,-0.31174693188406527,-0.10687924300730228
1774158163417409500,3.677409423828125,-0.162736739307642,0.2903659248769283,0.07406359959840775
1774158163437402600,3.697402587890625,-0.4879711484700441,1.0743419539589434,-0.6692796095177531
1774158163457394700,3.717394775390625,-1.2887217136770486,0.835821001805365,-0.6918491687223315
1774158163477387800,3.7373876953125,-0.43941374605000016,-0.131707175597921,-0.18875000922530888
1774158163497380600,3.757380615234375,0.6929968774527311,-0.5688932356610894,0.3676072777286172
1774158163517372700,3.77737255859375,0.5214531468331813,-0.1428096574358642,1.2178832136049866
1774158163537365800,3.79736572265625,0.1046516300857067,-0.1336694886468351,1.7991148295745252
1774158163557358800,3.81735888671875,-0.6759282537519932,0.656012131665647,0.05374941810518503
1774158163577350700,3.8373505859375,-0.4593517877072096,-0.6491206185862421,0.3293237243026495
1774158163597343700,3.85734375,0.7253390581309795,0.5949326629333198,0.5422998277679085
1774158163617335600,3.87733544921875,1.0029659129440784,0.5492527156457304,1.0501458895310758
1774158163637328600,3.89732861328125,-1.4412392567873,0.43740956662073727,0.7265247607842087
1774158163657321700,3.91732177734375,-1.4305688096910714,0.2934323267102241,0.38982904640883204
1774158163677313500,3.9373134765625,0.8354302489221096,0.24638094493895768,0.3319789149865508
1774158163697306600,3.957306640625,0.624849808421731,0.15681319447755812,0.38863691401481626
1774158163717299700,3.9772998046875,-1.0996546013265847,0.6039933367453515,-0.0440387559518218
1774158163737291500,3.99729150390625,-1.385377084311843,0.985319050963968,0.5468953388646245
1774158163757284600,4.01728466796875,-1.4561176769673823,0.39943040296882387,0.08863456126451492
1774158163777276700,4.037276611328125,-1.7012281635791062,-0.8292812247730791,0.13264379886090755
1774158163797269500,4.05726953125,0.3274672827810049,-0.10831263681128621,-0.1403366914510727
1774158163817262600,4.0772626953125,0.015037410134077072,0.4650539448715746,-0.19496201560795307
1774158163837254700,4.097254638671875,-0.23499182817935943,0.824240307996422,-0.27630817342996594
1774158163857247500,4.11724755859375,0.6764987471163273,-0.24235037424862382,-0.5496218412190675
1774158163877239600,4.137239501953125,0.4742296233654022,-0.3068642013438046,-0.7199673019647598
1774158163897232600,4.157232666015625,-0.2996381956130266,0.3974389368906617,-0.7466817058891058
1774158163917225500,4.1772255859375,0.7293710901260375,0.18828823693245647,-0.9146370566278695
1774158163937217500,4.197217529296875,1.6444664119154213,0.3076967066451907,-0.5821212582856417
1774158163957210600,4.217210693359375,2.406247487258911,0.4552303238630295,-0.03515431548953056
1774158163977203700,4.23720361328125,1.7140291929632425,-0.4378443047761917,-0.5586275699734687
1774158163997195500,4.257195556640625,0.5457926383197307,-2.0142875663012263,-1.5808026257783174
1774158164017188600,4.277188720703125,-0.5830395421743393,-1.568430927722156,-1.742094426974654
1774158164037180400,4.297180419921875,-0.550258970078826,-0.7135897297568619,-0.9898732071369886
1774158164057173500,4.317173583984375,-0.08419336394667624,-0.9663575992539525,-0.27026070995926854
1774158164077166600,4.33716650390625,0.6016589024484157,-1.3377486333049833,0.24278584305644033
1774158164097158400,4.357158447265625,0.033493104279041286,-0.9536842879027128,0.9717372464656829
1774158164117151500,4.3771513671875,-1.3173933891490102,0.7579253497634083,1.2713064684957265
1774158164137143600,4.3971435546875,-2.430268998837471,-0.3997058954419568,1.0881699152380226
1774158164157136400,4.417136474609375,-1.047960069924593,-0.9182186414416879,1.859694385960698
1774158164177129500,4.43712939453125,-0.7420791805297136,-0.9545965073768049,1.8158844703286885
1774158164197121500,4.45712158203125,0.050263037294149396,-0.002690188932046294,1.744075371658802
1774158164217114400,4.4771142578125,-0.16378361801207064,-0.45178456732332706,1.3393302034080028
1774158164237107500,4.497107421875,1.1899790153741836,0.05887699025198817,-0.7657499789744615
1774158164257099500,4.517099609375,3.490740759810805,-1.4135456325672566,0.3093190471500158
1774158164277092400,4.53709228515625,3.4649876021340487,0.3647496963404119,-0.25565584602355956
1774158164297084700,4.557084716796875,1.4898819994032382,1.7412243661418556,-0.9347340882390737
1774158164317077800,4.577077880859375,0.7086772616654634,6.290052914398908,-0.2552712306201458
1774158164337070600,4.597070556640625,-1.4659323840171097,2.770712667569518,0.34003801054060456
1774158164357062700,4.617062744140625,-2.4998320721462366,1.223585809160769,-0.6542097584187984
1774158164377055700,4.6370556640625,-2.7005431528002024,-0.03993716585189104,-1.2241326293885708
1774158164397048600,4.657048583984375,-0.003591156359761953,-0.1324889005601406,-1.0987503459632395
1774158164417040600,4.67704052734375,2.8412282192975282,0.15797785434275866,-0.9612368952393531
1774158164437033500,4.697033447265625,2.1050141314089297,1.3716554329514503,0.009376900154352188
1774158164457025500,4.717025634765625,1.008658571627736,2.042435217899084,-0.43316228443980215
1774158164477018600,4.7370185546875,0.6029952656187116,0.49596974600851534,-0.7033703874289989
1774158164497011500,4.757011474609375,0.29452114486023784,0.43723377166241406,-0.651047494995594
1774158164517003500,4.77700341796875,-1.9162147300839423,-0.9440387999400496,-1.2045037998110055
1774158164536996600,4.79699658203125,-2.753683206835389,-1.5728502054691313,-2.0244722757071254
1774158164556988400,4.816988525390625,-2.4170325006455182,-1.40836837605983,-2.3553613496303556
1774158164576981500,4.8369814453125,-4.141939061453939,0.01179272912442684,-1.6422212633371351
1774158164596974600,4.856974609375,-1.7204852372348307,0.5706827494263649,2.323803597328067
1774158164616966400,4.87696630859375,1.003845033866167,-0.28119828355908394,2.8156939650684594
1774158164636959500,4.89695947265625,4.09596407674253,-0.17740443934649228,4.469767578762769
1774158164656952600,4.91695263671875,4.24441919271946,0.2479661683037877,4.198559358820319
1774158164676944400,4.9369443359375,0.2753828752785921,-0.7360641580238938,2.9493197607040402
1774158164696937500,4.9569375,0.7313906132549047,-0.4235226416960358,3.426465563777089
1774158164716929500,4.976929443359375,2.3116461265444754,0.6673173695340752,3.848307412779331
1774158164736922600,4.996922607421875,2.2535423126220704,1.6551920963302253,4.262332450550795
1774158164756915500,5.01691552734375,2.6397774261921643,1.3576970502257346,4.139339108088612
1774158164776907500,5.036907470703125,1.5005308191895483,1.204973170888424,1.210454232648015
1774158164796900600,5.056900634765625,-1.6068635342299937,2.0587562381029128,0.8596972596943377
1774158164816892700,5.076892578125,-1.8229589387595653,-0.8813876979768276,-2.950456655779481
1774158164836885500,5.096885498046875,-2.4312357980430126,-1.1238123065054415,-8.178083752527833
1774158164856878800,5.11687890625,-2.5702292581915853,-0.7541893050402403,-9.504956040900945
1774158164876871000,5.136870849609375,-0.1875836688596755,1.56718326574862,-1.9568506918549537
1774158164896864000,5.156864013671875,0.33396190549731253,2.102993439236283,-0.8830015629142522
1774158164916856800,5.17685693359375,0.04055887794680893,1.2191554254978894,-0.6158078393101691
1774158164936849000,5.196848876953125,-0.2136263840675354,-0.26463644033670425,0.471904395288229
1774158164956841700,5.216841796875,-0.8231506130635738,-0.6136258190959691,-0.027907413101196286
1774158164976833800,5.236833740234375,-3.735190736687183,-1.3876280781090258,-1.584675083297491
1774158164996827000,5.256826904296875,-0.8725918125808239,0.030073066702485083,-2.1341607309162614
1774158165016819700,5.27681982421875,4.579079017353058,0.864184049719572,0.15402327149808406
1774158165036811800,5.296811767578125,3.389933530193567,-0.6749988639473915,2.308780215719342
1774158165056804900,5.316804931640625,2.3261340861022473,-0.9338461994886398,1.9948586432099342
1774158165076797700,5.336797607421875,-0.36552258040904995,-0.21600597268044947,-0.36860301076769825
1774158165096789800,5.356789794921875,-0.43296705412864683,0.3000684037238359,-0.9710761522084475
1774158165116782800,5.376782958984375,0.842211798821017,1.0532833107739685,0.2784662282466888
1774158165136774700,5.396774658203125,1.0454068052452057,-1.0575275242149829,0.8766273517072201
1774158165156767700,5.416767822265625,0.9984989966630935,-1.4272194992631673,0.38040392319858074
1774158165176760800,5.4367607421875,0.03823467278294265,-2.2860259475976226,2.069526053920388
1774158165196753000,5.4567529296875,1.4953005173206328,-2.4302251596957443,1.6217244187533855
1774158165216745700,5.476745849609375,-0.721158557575941,1.5528630639731884,-1.118026124319434
1774158165236737800,5.49673779296875,-3.0754607535421847,0.8279641508251429,-0.912549144437909
1774158165256731000,5.51673095703125,-1.4893454083085058,0.8707558293253183,-0.4777034369558096
1774158165276724000,5.536723876953125,5.447665685945749,2.8858459441810846,1.741768263760209
1774158165296715800,5.5567158203125,2.350268994927406,1.1236281821101903,0.9218868816256522
1774158165316708900,5.576708984375,3.828866214728355,-0.11148878262937069,0.17404022361040114
1774158165336702000,5.596701904296875,-4.4021956792712205,0.7594470794379711,-1.928386229392886
1774158165356693800,5.61669384765625,-4.200048136073351,-0.005212181690335273,-1.7556570883810518
1774158165376686800,5.636686767578125,-1.7116821914456783,-2.6321844868451354,-1.239846915870905
1774158165396679000,5.656678955078125,-1.8960509168468416,-2.315725504812598,-1.9984739110976457
1774158165416671700,5.676671630859375,-0.3030174627877772,-2.0481763918995854,-0.7059680027067661
1774158165436664800,5.696664794921875,0.4281098233558237,-0.9000228403419256,0.4082283341914415
1774158165456657000,5.716656982421875,0.695130674611032,-1.3419096985071897,0.9170341808974742
1774158165476649700,5.736649658203125,1.3394962076246737,1.362457981017232,-1.5416016652464866
1774158165496641800,5.756641845703125,0.9037585197389125,0.7303630237728357,-0.17899521566927432
1774158165516634600,5.776634521484375,-0.061229836988449096,2.055219880670309,0.831596954369545
1774158165536627700,5.796627685546875,-1.4448143387950956,1.259067164647579,1.549849853631854
1774158165556619800,5.816619873046875,-2.9498119281351562,0.36128713479638097,0.8814303680747747
1774158165576612600,5.836612548828125,-0.5896024078212678,0.7534504693716764,0.03234276520013809
1774158165596605000,5.85660498046875,-0.3025894466340542,0.09316869756281375,0.5831693060338496
1774158165616598000,5.876597900390625,0.5331376663427799,0.566264348462224,0.7046575046300888
1774158165636590600,5.896590576171875,1.0675859768927096,0.23137948290109633,-0.20137889691293237
1774158165656583000,5.9165830078125,1.864526628422737,-1.706833143979311,-1.9937024589121342
1774158165676576000,5.936575927734375,-0.4029039242982864,1.121064469102025,0.375746452781558
1774158165696567800,5.95656787109375,-0.8463293171424419,1.157821543613076,1.2131032858520745
1774158165716561000,5.976560791015625,-3.140269033539295,-0.3427776646375656,-1.7733493969380854
1774158165736554000,5.996553955078125,1.1442086133241653,-2.306654309606552,-0.9809867208480835
1774158165756545800,6.0165458984375,3.5803555642843246,-1.7693483446031808,0.12027531567513942
1774158165776539000,6.036538818359375,-0.28453237815154714,-1.3533873703330754,-0.7457365339934825
1774158165796530700,6.05653076171875,0.043877701904904094,-1.138683127900958,-0.5312888966709375
1774158165816523800,6.076523681640625,0.08767360727787017,-0.4630179089993238,1.057889343264699
1774158165836516900,6.096516845703125,-0.2271487317298539,-0.3523544712781906,1.0587287166982888
1774158165856508700,6.1165087890625,1.6765666005313395,1.8076678461253641,-0.4080921405911445
1774158165876501800,6.136501708984375,1.14287590341568,0.12514905919134617,0.21408464922904968
1774158165896493600,6.15649365234375,-0.3534533724308014,1.3127099075078963,-1.1452040541023016
1774158165916486700,6.176486572265625,0.6096037239730357,2.4930571711838243,-0.1996218241125345
1774158165936479700,6.196479736328125,0.05301787982708774,2.0934750847846266,0.17400982847213745
1774158165956471800,6.216471923828125,-2.766034738886356,2.6139631859779358,-0.17389701574742794
1774158165976464600,6.236464599609375,1.382103761729598,-0.5190285500347614,0.8363438566356897
1774158165996457000,6.25645703125,0.10903664023689925,-1.8540695318162441,-0.08586100489795208
1774158166016449800,6.27644970703125,0.5579740745007992,-3.6198429405421018,-1.4621072727710007
1774158166036443000,6.29644287109375,-0.12346037545204162,-2.2548025418162343,0.28807518359124656
1774158166056435000,6.31643505859375,-0.8565834385227411,-0.34956279473304747,-1.0006909537494182
1774158166076427800,6.336427734375,-2.2679016773641107,1.1841150917768477,-0.5386971271008253
1774158166096419800,6.356419921875,3.165741328448057,0.1200976210206747,-0.19330577283352612
1774158166116413000,6.376412841796875,0.18308321563526986,-6.113834762227535,-1.4068757994145153
1774158166136404700,6.39640478515625,2.3084650122903287,-3.9953544155240057,1.363650990194082
1774158166156397800,6.416397705078125,6.347534212508798,-5.605490103292465,5.632500275292992
1774158166176391000,6.436390869140625,3.0416876632779837,-5.711520620515942,4.748624267631769
1774158166196382700,6.4563828125,-0.6570185322292149,-0.9483733220130205,1.8982693235486745
1774158166216375800,6.476375732421875,-2.131028278109431,1.533704189994931,0.1688721733227372
1774158166236367600,6.49636767578125,-3.065851213675737,2.1948171519309283,-1.3667743829116223
1774158166256360700,6.516360595703125,0.35097499961853024,0.9802829564929008,-2.809825365296006
1774158166276353800,6.536353759765625,-0.523867222237587,0.32704291988909245,-4.502611279222369
1774158166296345600,6.556345703125,-2.0418629709690808,3.196454446619749,-4.233501200602948
1774158166316338700,6.576338623046875,-2.095133373385668,3.6338065839648244,-2.268086824672669
1774158166336331000,6.5963310546875,2.3832880519539117,2.686861248928308,-0.039725568927824494
1774158166356323800,6.61632373046875,2.8943916542083024,2.306225855061412,0.10111980269774794
1774158166376316000,6.63631591796875,-0.868082956854254,0.41085049938857554,0.10648980529829859
1774158166396308700,6.656308837890625,-0.45263037049770355,-0.543725768917799,1.0032314320124684
1774158166416301800,6.6763017578125,0.9865969619452952,-0.6072083532691002,1.3309803082138298
1774158166436294000,6.6962939453125,2.117586758864671,1.132812190040946,0.3447200308769941
1774158166456286700,6.71628662109375,2.7403432482689616,0.5288303976029157,0.8268462527111172
1774158166476278800,6.73627880859375,-0.9940605758242308,-0.7112678626805543,0.5698840002641081
1774158166496272000,6.75627197265625,-2.406730302339792,-0.3506032436966896,-0.8323618012621998
1774158166516264700,6.7762646484375,-2.832866049143672,-0.19300328275561332,-1.8786103910937904
1774158166536256800,6.7962568359375,-1.0267980394303797,-1.4155892672240733,-0.8524977766443044
1774158166556249900,6.816249755859375,0.6241939748615026,-1.6242741032361983,0.4840351972606033
1774158166576241700,6.83624169921875,0.9054834438353776,0.09799041863083839,0.5966940465826541
1774158166596234800,6.85623486328125,0.3791138833880424,1.5226654941082,0.21020999975278973
1774158166616226600,6.8762265625,-0.045083004307746886,0.5183014048039913,1.0249182170331477
1774158166636219600,6.8962197265625,-1.0866600951969623,-0.12709727064967155,0.008961012829840184
1774158166656212700,6.916212646484375,-1.1581272485613823,-1.077895189461112,0.18072759241983294
1774158166676204800,6.936204833984375,-0.39988654923848804,-1.3508587286382914,0.23119608915820716
1774158166696197600,6.95619775390625,0.7892389911115169,-0.32138533251881596,1.3728292990364133
1774158166716190000,6.97618994140625,1.2637586834646761,2.4050007020682096,2.11110762597844
1774158166736182800,6.996182861328125,0.45523726506046946,3.178662184819579,0.8821703727871179
1774158166756174800,7.0161748046875,-3.3303964685976504,1.2458429414153098,0.7277417353585361
1774158166776168000,7.03616796875,-0.07361355427596718,-1.5853835238277911,-0.44100876015648244
1774158166796160800,7.056160888671875,3.7269150757730003,0.7915840929329395,-0.4202947656907141
1774158166816152800,7.07615283203125,1.8330910411953925,0.021452537873387335,-0.1868085197687149
1774158166836146000,7.09614599609375,0.20070026699900625,0.14680793329179287,0.2875898842923343
1774158166856137200,7.11613720703125,-1.2467208932936191,-0.030772154882550237,0.8814009958498179
1774158166876130300,7.13613037109375,-1.0139631077766418,-1.132735617673397,1.4454976448841392
1774158166896123400,7.156123291015625,-0.6668143884479999,-0.4839513914346695,1.3709618977293372
1774158166916115200,7.176115234375,-0.7623673507988452,0.0319067118704319,1.2893851460218428
1774158166936108300,7.1961083984375,-0.33018706313371654,0.34801790337860583,0.8821303330376744
1774158166956100400,7.216100341796875,-1.679447124403715,-0.09145078772902489,0.9248922009214758
1774158166976093200,7.23609326171875,-2.350167288118601,-0.6141606566250324,0.5375052869677543
1774158166996085500,7.25608544921875,3.36961847191751,1.0020587349712848,-0.4839265492543578
1774158167016078300,7.276078369140625,6.805683054167032,1.2447469628721475,-0.763201463535428
1774158167036070400,7.2960703125,-1.1153536902397871,-0.8134902197927236,0.5278351029552519
1774158167056063500,7.3160634765625,0.6214420458048582,-0.015429039800167082,0.30157208628505466
1774158167076056300,7.336056396484375,0.5518740405926481,1.3403437643647194,-0.5651084564253688
1774158167096048400,7.35604833984375,-1.7562077080011367,0.6046043082505465,-0.1500865165710449
1774158167116041500,7.37604150390625,-1.027868299010396,0.2509188806295395,0.3973940748356283
1774158167136033300,7.396033203125,1.252541562271118,0.4732534718096256,0.46386955739259716
1774158167156026400,7.4160263671875,0.23460724930856375,0.1425847626388073,-0.11650135009437798
1774158167176019500,7.43601953125,-0.5424736864974722,0.031070845568180083,-0.19639803976044057
1774158167196011300,7.45601123046875,0.013175123393535612,-0.336236280170083,0.10636369470059871
1774158167216004400,7.47600439453125,0.4070493900725618,-0.7121516597777605,0.0037405017025768754
1774158167235996200,7.49599609375,-0.3531599059095606,0.5256950221866369,0.1788870791196823
1774158167255989200,7.5159892578125,0.44376134680025275,-1.2441431517601012,1.0927134038865565
1774158167275981300,7.535981201171875,-0.8331477640081196,-1.7683979120105504,0.39286023079827426
1774158167295974100,7.55597412109375,0.5177051194112747,-0.4976087453871965,0.1898969873033464
1774158167315967200,7.57596728515625,0.5265619412142784,-0.5302782583236694,0.47443902833238244
1774158167335959600,7.59595947265625,1.6042770248681306,-0.49432197880148887,0.3745506671257317
1774158167355952400,7.615952392578125,-0.5000631528019904,0.17481237702667712,-0.24843597777262327
1774158167375944400,7.6359443359375,-1.1720604968458412,0.0055406829923391335,-1.2948137469418346
1774158167395937300,7.655937255859375,0.4660170908153057,-1.1751678152114151,-0.4536936158150434
1774158167415929300,7.675929443359375,0.6330998965032398,-0.34300738174021245,0.576954011715576
1774158167435922400,7.69592236328125,-0.004699117601662874,1.5533347731381655,1.1432858724560588
1774158167455914200,7.715914306640625,-1.4457292616829276,1.0452765299290419,1.356590258027613
1774158167475907300,7.7359072265625,-2.0936713380090892,0.6937701999127864,0.4957999423995614
1774158167495900400,7.755900390625,0.46318069834560155,1.1122118850827216,-0.24476108865216373
1774158167515892200,7.775892333984375,-0.9818540052019059,1.4532394911825657,-0.3388606373243034
1774158167535885300,7.79588525390625,-1.9863976888567207,-0.9715046067535876,-1.074953144659847
1774158167555877000,7.815877197265625,1.8204805659472942,-2.493313776293397,-1.1637297447435557
1774158167575870200,7.8358701171875,4.620709835380316,-0.6669453213512897,0.2798363475561142
1774158167595862300,7.8558623046875,-0.36870968601256604,1.499401522898674,1.017316948249191
1774158167615855000,7.875855224609375,1.027155766826868,1.5435276648730039,0.6677852793067693
1774158167635848200,7.89584814453125,-1.560239730221033,-1.1817711589992046,-1.7511757051832972
1774158167655840500,7.915840576171875,-1.1163362715363503,-3.493434236678481,-2.191444606757909
1774158167675833300,7.935833251953125,-0.45120559839159247,-2.35665840370357,-2.30221895750761
1774158167695825400,7.955825439453125,-0.43019685876294966,-2.404481062108278,-0.6348335884280503
1774158167715818500,7.975818603515625,-0.8039467308998107,-0.1332984633773565,0.5705884952716529
1774158167735810300,7.995810302734375,0.37000177164971826,3.5742326974898573,0.7914413234613835
1774158167755803400,8.015803466796875,2.881422867041826,1.1083645620048046,-0.057088791660964484
1774158167775795200,8.035795166015625,2.0308910567082465,-0.4175666559010744,-0.24116920164003966
1774158167795788300,8.055788330078125,-1.1356085427612066,-1.9617185901522636,0.4633398344300687
1774158167815781400,8.075781494140625,-1.1978589549690484,-1.7201923917680977,0.541969353704527
1774158167835773200,8.095773193359374,4.697206799605489,3.720735510355234,0.7771042436163872
1774158167855767600,8.115767578125,-2.6704893753200767,-1.5624989073246716,2.385523555921018
1774158167875759400,8.13575927734375,1.1705946620769798,-0.183339382353425,-1.1119893283732234
1774158167895752400,8.15575244140625,-0.37251711547151206,0.6849339825063944,-0.5933300500422716
1774158167915744500,8.17574462890625,-0.26910686374902726,0.1824678602159023,0.20709259838461874
1774158167935737300,8.1957373046875,-0.14456979897618294,-0.4837269350290298,-0.670263505988568
1774158167955730400,8.21573046875,0.946572702331841,2.7804011178910732,-0.6512028316877781
1774158167975722500,8.235722412109375,0.5814622098550201,-3.1095395487546917,-0.28633652323037384
1774158167995715300,8.25571533203125,0.04555412895083427,-2.4866262613534924,0.28683044422715903
1774158168015707400,8.275707275390625,-0.5197279304757714,-2.190717899918556,-0.7159880230702459
1774158168035700500,8.295700439453125,-2.727054727628827,0.35746728424727914,-0.09622735448107123
1774158168055692500,8.315692626953124,-1.0729746841937302,0.745299311619997,0.6663776044659316
1774158168075685400,8.335685302734374,1.1126970382511616,0.8320213172614574,0.8205082818612456
1774158168095677400,8.355677490234376,2.2552482397571203,0.5087631766080856,-0.09127382372692226
1774158168115670500,8.37567041015625,2.2587919037133455,0.579548777449131,-0.30029782856553794
1774158168135663600,8.39566357421875,0.6209428641110658,0.12935995488464833,0.11897943064570426
1774158168155655400,8.415655517578125,-0.876715029990673,1.0116022238641977,0.5456358403228223
1774158168175648500,8.4356484375,0.42427346006333827,1.1133481956362723,-0.10887801560908555
1774158168195640600,8.455640625,-0.0900689779818058,-0.046647184884548186,-0.14923472204729915
1774158168215633400,8.47563330078125,-0.9852040462821722,-0.48491877516210075,-0.35571138049066064
1774158168235625500,8.49562548828125,-1.2245409179285167,-0.5039578221529722,-0.015997487337887285
1774158168255618300,8.515618408203125,-1.6926909291192889,-0.6082832890242338,-0.24896643138751387
1774158168275610400,8.5356103515625,0.658679012787342,-0.31142917117178437,0.26354893736094237
1774158168295603500,8.555603515625,0.6799222918242216,0.24921733740866184,0.3384336440838873
1774158168315596300,8.57559619140625,-0.4953098207950592,-0.7531716524302959,0.8656161283493041
1774158168335588400,8.59558837890625,1.4689540699258445,-1.1853916875839232,0.4723562307089567
1774158168355581400,8.61558154296875,1.244585634830594,-0.6504331624895334,0.27641543319672346
1774158168375573500,8.635573486328125,1.2545029254719615,-0.2623334240913391,0.06866831642612814
1774158168395566300,8.65556640625,-0.2835056837186217,0.1515115809381008,-0.38364538933783765
1774158168415558400,8.675558349609375,-2.696326996409893,1.378800628530979,-0.7677202561341225
1774158168435551500,8.695551513671875,-0.24239304434657094,0.10553542718291282,-0.0036592531599104403
1774158168455543600,8.71554345703125,2.1395009229004383,-1.3613298537701368,0.5126129839040339
1774158168475536400,8.735536376953124,0.9195219060599803,-1.2888491394490003,0.6654566902287304
1774158168495529500,8.755529541015624,-2.4833383257240054,0.35254911706745623,-0.2975003068014979
1774158168515521500,8.775521484375,-2.640930395619571,-0.12606909664571284,-0.44883711569458246
1774158168535514400,8.795514404296876,0.628328005926311,-1.4915595772266388,-2.2380136118397114
1774158168555506400,8.81550634765625,2.170482628880441,0.7537824778050184,-0.2572027832046151
1774158168575499500,8.83549951171875,-0.3950204775720835,-1.711463726389408,2.332744590283185
1774158168595491300,8.8554912109375,0.18108020524978638,0.8431640580445527,0.37639907147139307
1774158168615484400,8.875484375,1.8390036262400447,2.4119629422962663,-2.8657240703895686
1774158168635476200,8.895476318359375,1.1948369767993687,0.4600789329379797,-1.6662499353088438
1774158168655469300,8.91546923828125,-0.10439487884566187,-0.9695727619081735,-0.8953662467077373
1774158168675462400,8.93546240234375,0.07863967534229159,-0.21684359254837035,0.228124718888849
1774158168695454500,8.955454345703124,-1.2195353647261857,-0.9345306746214628,1.1961340308725834
1774158168715447600,8.975447509765624,0.926048092958331,1.0941717860013247,0.4222608050666749
1774158168735439600,8.995439697265626,-0.633213293749839,-0.04215571868419647,0.5267815022490918
1774158168755432400,9.015432373046876,0.17990078620687125,-2.219392205739021,0.2097507116779685
1774158168775424500,9.035424560546875,0.17168343135118483,1.4903221443861723,-0.24279059229679403
1774158168795417600,9.05541748046875,-0.4188783230215311,1.8723855252295731,-0.12149893918596208
1774158168815409400,9.075409423828125,-0.2717095935933292,-0.25286826113164423,-0.05562266463115811
1774158168835402500,9.095402587890625,0.38597098274119196,-1.3582640364587306,0.052479909626021976
1774158168855394000,9.11539404296875,-0.07061389753594995,-0.02845452558994293,0.0890313785623759
1774158168875387000,9.135386962890625,-0.19971300952732562,-0.37573534686565396,0.025930925396457312
1774158168895380000,9.1553798828125,-0.3944377092480659,0.4718202241361141,-0.41615357423275706
1774158168915372000,9.1753720703125,0.20484386960975826,2.165274246582389,0.35378625764697785
1774158168935364900,9.19536474609375,-0.6038035132616758,2.875965770679712,-0.027759017606452104
1774158168955357200,9.215357177734376,-0.9658131901789456,0.9585667992472648,-0.6040243164055049
1774158168975350000,9.23535009765625,3.3850486807614564,-3.351585387098789,-0.35208025744669136
1774158168995342000,9.255342041015625,-0.004167494942992926,-4.564486428377032,-0.06964432185143232
1774158169015335200,9.275335205078125,-1.300216921159625,-0.6777934631019831,0.6780378663171083
1774158169035327000,9.295326904296875,0.35202596997618674,-1.4149907168090343,0.449671155365929
1774158169055320000,9.315320068359375,-0.685980861210823,-1.7104320452541113,0.012274155965819954
1774158169075313200,9.335313232421875,-0.05476268680095672,-1.126862926247716,-0.06504851849377155
1774158169095305000,9.355304931640624,-0.6427834514539689,0.5271235936850309,0.11781623208522796
1774158169115298000,9.375298095703124,-1.4237299035817383,1.362935535401106,0.2621748725287616
1774158169135290000,9.3952900390625,0.8536053725600242,0.8815461034089326,0.4137973664954304
1774158169155283000,9.415282958984376,3.228461696255207,0.6723860511004924,-0.07759177372455596
1774158169175275000,9.43527490234375,-0.2397813274782151,0.08607844704091548,0.25903306737169624
1774158169195268000,9.45526806640625,-1.1323416499197483,1.0506775121897458,-0.11952668926492332
1774158169215260000,9.475260009765625,0.9611854573130607,0.09564823941886424,0.03275163826197386
1774158169235253000,9.4952529296875,0.1484662584254518,0.11029811154007911,0.06666252956166863
1774158169255245000,9.5152451171875,-0.5058458278566599,-0.1257920332700014,0.3190381848707795
1774158169275238100,9.535238037109375,-0.2687193622687831,-0.19804419953227043,0.3992313732653856
1774158169295231000,9.55523095703125,0.21791911282539367,-1.1696066739529372,0.5895999236032367
1774158169315223000,9.57522314453125,0.6529203031301498,-0.3831961842656135,-0.1635132766380906
1774158169335216000,9.595216064453124,0.20615093362033365,-0.2778834599226713,0.20825228981375693
1774158169355208200,9.615208251953124,1.155294655483961,-1.0442845962822436,0.40848566995337604
1774158169375201000,9.635200927734376,-1.1894266421884299,0.625800825536251,0.39980069758594033
1774158169395193000,9.655193115234376,0.33983518144488334,0.14453940383791922,-0.7464419057838618
1774158169415186200,9.675186279296875,0.0191600247557275,0.22070903580486773,-1.6649850299395619
1774158169435178000,9.695177978515625,-1.4698311450213193,0.22815993633270262,-0.616864801017195
1774158169455171000,9.715171142578125,0.41138241430819034,0.44380642805099485,0.7863553984992205
1774158169475163000,9.735162841796875,0.45745267608761786,0.4253495648622513,0.688786712411791
1774158169495156000,9.755156005859375,0.5423708471775055,-0.2674526668012142,0.14366218261197208
1774158169515148300,9.775148193359374,-0.31018764667809007,-0.6435849040299654,-0.29026830972135065
1774158169535140900,9.795140869140624,-0.44613224065005774,-0.6143032799661159,-0.27955387735292314
1774158169555134000,9.815134033203124,-0.3444967435151338,-0.4832429509043693,0.025237024848163127
1774158169575126300,9.835126220703126,-1.0343401253730058,-0.07155190903842448,0.1940935622103512
1774158169595119000,9.855119140625,0.14517006642427294,0.01803893003761768,-0.091635204385221
1774158169615111200,9.875111083984375,-0.40808395728468894,0.0019458733707666397,-0.16351546859517693
1774158169635104300,9.895104248046875,-1.427152863767743,-0.201935361751914,-0.6188493989631533
1774158169655096000,9.915095947265625,0.7275660865306853,-0.4973088856577873,0.06959303005561232
1774158169675089200,9.935089111328125,0.27007601930843667,0.09543722701668739,-0.06023454234078526
1774158169695081000,9.9550810546875,-0.18465570738269016,0.5733399859368801,0.09013619799911975
1774158169715074000,9.975073974609375,0.010490450886823236,-0.1230646541327238,0.1974437494210899
1774158169735066000,9.995066162109374,-0.03598548735035583,-0.48094168822467326,0.5585374074719845
1774158169755059000,10.015058837890624,-1.1935352465510367,-0.1602349856197834,0.890668005888909
1774158169775052000,10.035052001953124,-0.25825052042556923,-0.9709896429687738,0.5941776067823171
1774158169795044000,10.055044189453126,0.7094120056807994,-0.5972130289554596,-0.041930823887139555
1774158169815037000,10.075036865234376,0.06279047390129416,-0.32154023081958294,-0.8674046192012727
1774158169835029200,10.095029296875,-1.0767851823925971,0.16789280689656733,-0.7067882330484688
1774158169855022000,10.11502197265625,0.1499433087080717,1.0811620823025703,0.37138095104843377
1774158169875014100,10.13501416015625,0.16383216986153273,0.41489129921197887,0.5140875865012406
1774158169895007200,10.15500732421875,1.401251529791951,0.7295224812954664,-1.6237439418822526
1774158169914999000,10.1749990234375,0.14186581898080183,0.2587526429951191,0.11467749566808343
1774158169934992100,10.1949921875,0.19066926858378574,-0.023687749579548834,0.8038524767450987
1774158169954984200,10.214984130859374,-0.16415126401437447,0.23091303443312644,0.2624063431970775
1774158169974977000,10.23497705078125,-0.48139177007973194,0.48771571240425104,0.3342367769159376
1774158169994969000,10.254968994140626,0.3027875995546579,-0.26356910336613654,0.38562589563056826
1774158170014962000,10.2749619140625,0.3325859409689903,-1.0878156949728726,0.33944705891013144
1774158170034955000,10.294955078125,0.1399789640545845,-0.5290086767792701,-0.02170665876492858
1774158170054947000,10.314947021484375,-0.718984136146307,-0.12212766554355621,-0.10985767429620028
1774158170074940000,10.33493994140625,-0.1443009189069271,-0.3080681703060865,-0.036153117268532514
1774158170094932000,10.354931884765625,0.6070540394902229,-0.5190174441188573,0.2798743414789438
1774158170114925000,10.374925048828125,0.0390419751444133,-0.29153146152496334,-0.8189956853412091
1774158170134917000,10.394917236328125,-0.25693244183063507,-0.4976444012224674,-0.0895228884063661
1774158170154910200,10.41491015625,-0.37103111469745637,-0.0073655603319406505,0.8610188636869192
1774158170174902000,10.434902099609374,-0.2684685658454895,0.23151684554517268,0.6132144618161023
1774158170194895000,10.45489501953125,0.01994506505304016,-0.30034137544631956,-0.254558406175673
1774158170214887200,10.47488720703125,-1.2593968349933624,-0.4159533754855394,-2.038173761062324
1774158170234880000,10.4948798828125,0.02812895603054203,0.9771002348035573,-0.3208236069828272
1774158170254872000,10.5148720703125,0.3721855454295873,0.3579483457624912,1.3847684508942066
1774158170274865200,10.534865234375,0.275547125929594,-0.33268881682157514,1.1412011020712554
1774158170294857000,10.55485693359375,0.37924832342267034,0.07130816341042519,-0.5651531723499298
1774158170314850000,10.57485009765625,-0.2069680952221155,0.04933657009899616,-0.07920330057442188
1774158170334843100,10.594843017578125,0.1684346586883068,0.26908348287343975,0.009583236381411552
1774158170354835000,10.6148349609375,0.011854688444733618,0.08740005103349685,-0.012180413267761469
1774158170374828000,10.634828125,-0.1830570582807064,-0.060956280744075775,0.2902025510087609
1774158170394820000,10.654820068359374,0.0894610934828408,0.6432879669100046,0.4204650076910853
1774158170414813000,10.67481298828125,0.12381753659294917,0.35521044523119927,-0.3680037297002971
1774158170434805200,10.69480517578125,0.1024310405599419,-0.411813791462779,0.34140564563199877
1774158170454798000,10.714798095703125,-0.004091059572761878,-0.8091548209369183,0.28511399569809437
1774158170474790100,10.7347900390625,0.206894445464015,-0.16585750167667865,-0.03026888153553009
1774158170494783200,10.754783203125,-0.15736147601008416,-0.30177170051038266,0.07430982944443822
1774158170514775000,10.774775146484375,-0.02359888398600742,0.1667605879962444,0.15005378334522246
1774158170534768000,10.79476806640625,0.1889455135311,-0.41522389216721056,0.44228491757214067
1774158170554760000,10.814760009765624,0.15118541772365568,0.02804886739850044,0.0037875557146966454
1774158170574753000,10.8347529296875,0.10582244569705798,1.1759469828903675,0.13172580723315477
1774158170594745000,10.8547451171875,-0.4819195933461189,-0.30051790105700493,0.12048968907818197
1774158170614738000,10.874738037109376,-0.28803483331454915,-0.8624357447475195,-0.05720087373331189
1774158170634731000,10.89473095703125,-0.020683873322140424,-0.20783727927207946,-0.15078049018457532
1774158170654723000,10.91472314453125,0.03797873439365066,0.45035833391249175,0.28346564396917817
1774158170674716000,10.9347158203125,-0.20950550474524496,-0.0976981576859951,0.25989757524654267
1774158170694708200,10.954708251953125,-0.060368827111786226,-0.32931554099619387,0.049154199269413945
1774158170714701000,10.974701171875,-0.0839864431977272,-0.03409223921597004,-0.15215674697384238
1774158170734693000,10.994693115234375,-0.009247136294841765,0.17737609003484248,-0.029789427455514668
1774158170754686200,11.014686279296875,-0.20845219630002973,-0.1929039140343666,0.13402780056521296
1774158170774678000,11.034677978515624,-0.3375719126880169,-0.044568040522933006,0.05381313099116087
1774158170794671000,11.054671142578124,-0.1514975706790574,0.3248006939202547,-0.12514686723425983
1774158170814663200,11.0746630859375,-0.5569418088436127,-0.04992927529513835,-0.1732762535005808
1774158170834656000,11.094656005859376,-0.333280352973938,-0.4162105651170015,-0.11596154412925243
1774158170854647800,11.114647705078125,-0.5172036361625417,-1.0018132357776164,-0.31815877168774603
1774158170874641000,11.134640869140625,-0.2848550525009632,-0.5091027838259935,-0.2533431851670146
1774158170894632700,11.1546328125,-1.022597665131092,-0.24357670117318628,-0.5057324306100607
1774158170914625800,11.174625732421875,0.2277904819658026,-0.6645756696105003,0.032456893099099396
1774158170934619000,11.194618896484375,0.2526619249045849,0.558966592669487,-0.2542372113972902
1774158170954611000,11.21461083984375,0.20359832652807233,-0.6572714840769768,-0.054416649842262264
1774158170974603800,11.234603759765625,0.435277011571452,0.036328619965910906,-0.28551746193245053
1774158170994596000,11.25459619140625,0.7470997121054679,0.6302396847665309,-0.7330196757614612
1774158171014589000,11.2745888671875,0.7839175038278102,1.3560878614634275,-0.41350510555058717
1774158171034581000,11.2945810546875,-0.15844861365966498,1.4636106630712746,0.09089052349776029
1774158171054574000,11.314573974609376,1.5972271063566208,0.5927320841491222,0.7635618212804198
1774158171074566000,11.33456591796875,-1.5223966140389442,-2.751037076240778,0.6243260768085718
1774158171094559000,11.35455908203125,-1.0739911677598952,-2.653528303647041,-0.20657617329508066
1774158171114550800,11.37455078125,1.3736650192081927,0.7739239330798388,0.36401977463066576
1774158171134544000,11.3945439453125,1.43141110573411,1.288299688872695,0.359561918438971
1774158171154536000,11.414535888671875,0.948659080151841,-0.1015145011037588,0.18581629386097193
1774158171174528800,11.43452880859375,0.1567009297421202,-0.2333241872280836,0.049800388218462464
1774158171194520800,11.454520751953124,0.1708475285163149,-0.6595411825746298,-0.0445659946963191
1774158171214514000,11.474513916015624,-0.008771335476636886,-0.6149719730079174,-0.19406565129011868
1774158171234506000,11.494506103515626,0.47275432664845135,-0.3591705810338259,0.2987202039852738
1774158171254499000,11.5144990234375,0.3120411290576681,-0.06812193458974361,0.3847644564956426
1774158171274492000,11.534491943359376,0.3012847572436556,-0.31633097173869607,0.25719781476855275
1774158171294484000,11.55448388671875,0.0770586897611618,-0.2933370496422052,0.09949848510622977
1774158171314477000,11.57447705078125,0.1727425484826788,-0.12573065847158432,0.18281857334971427
1774158171334468900,11.59446875,0.9322481166422366,-0.41664837201237676,0.15517361057698725
1774158171354462000,11.6144619140625,1.1800444813370703,-0.4784656534999609,0.41306028439253567
1774158171374454000,11.6344541015625,0.7073965742051601,-0.5701058263212442,0.39027065269649025
1774158171394446800,11.65444677734375,0.9380816451013088,-0.5345400074213743,0.28336627524793145
1774158171414439000,11.67443896484375,1.0169880085557699,-0.4976064072996378,0.2659343711927533
1774158171434431700,11.694431640625,0.9403799851715564,-0.018422376397252083,0.2812973600193858
1774158171454423800,11.714423828125,0.8407301088958978,-0.19991350053548812,0.13793255291879175
1774158171474417000,11.7344169921875,1.0177081395238636,0.17340134118497372,0.2054369401320815
1774158171494409000,11.754408935546875,0.9612176060169935,-0.2633487386137247,0.5444613897159696
1774158171514401800,11.77440185546875,0.8851140250235795,-0.315184139791131,0.6644663640171289
1774158171534393900,11.794393798828125,0.6357201620042323,-0.5680524009227752,0.44988311761617655
1774158171554387000,11.814386962890625,1.032407696005702,0.2512228320121765,0.41774259698987004
1774158171574379000,11.83437890625,0.8506488608419894,-0.3043400896936655,0.6979983390018344
1774158171594371800,11.854371826171874,0.44589258667528625,-1.464993641862273,0.884331642474234
1774158171614364000,11.874364013671874,0.46499534655213354,-0.952673065033555,0.4117383881390094
1774158171634357000,11.89435693359375,0.6901736367255449,-0.573317774105072,0.18695465024113653
1774158171654348800,11.914348876953126,0.7613152113974094,-0.5553536628693342,0.4134522063195705
1774158171674342000,11.934341796875,0.8143371920108795,-0.3601788812935352,0.5534326316788792
1774158171694335000,11.9543349609375,0.6968997301101684,-0.8405793022483586,0.17262129672318696
1774158171714326800,11.974326904296875,0.8699597105115652,-0.34877895087897776,-0.2236062185510993
1774158171734319900,11.99431982421875,1.1125275269031525,-0.20665479148924348,0.4628144953817129
1774158171754311700,12.014311767578125,0.9168506410241126,-0.42407355357706544,0.47241322159320115
1774158171774304800,12.0343046875,0.5207301297882572,-0.7547270651787519,-0.011132511650025843
1774158171794297000,12.054297119140625,0.8412520869433879,-0.6104103641808033,0.010791735388338565
1774158171814290000,12.0742900390625,1.3278537006258964,-1.2871703925818203,0.07094634436070918
1774158171834282000,12.094281982421874,0.6913730756431817,-0.8113695743769407,0.3724439041048288
1774158171854275000,12.114275146484376,1.0379711753517389,-1.6216875938743351,-0.08429770110398531
1774158171874266600,12.1342666015625,0.9685194534629583,-1.478914615187049,-0.25776830813288687
1774158171894259500,12.154259521484375,0.61630994361341,-1.1408324148893356,-0.4626087436765432
1774158171914251500,12.17425146484375,0.7184107201725244,-1.4153238942861557,-0.24999124439060685
1774158171934244600,12.19424462890625,-0.7535346405237913,-2.2688760753542185,-0.35901392916738983
1774158171954236400,12.214236328125,-0.6056055942475795,-2.268159451517463,-0.49394993061870335
1774158171974229500,12.2342294921875,-0.28052257625460625,-2.004277628940344,0.35818829199820756
1774158171994221600,12.2542216796875,-0.13998948544859885,-2.03613874810338,1.2895374139741063
1774158172014214400,12.27421435546875,-0.7882265991985797,-3.0309540878176686,1.1237322270065546
1774158172034206700,12.294206787109376,-1.7410627458393573,-1.4461007253438234,0.41450083858966824
1774158172054199600,12.314199462890626,-1.2736954094588755,0.6450643289327621,0.2100451645798981
1774158172074191600,12.334191650390625,0.47831776946187016,2.8189719638258217,0.09151873839870095
1774158172094184700,12.354184814453125,1.0032850618958473,3.1956185803174972,-0.12354074721187353
1774158172114177500,12.374177490234375,-0.6244155086576938,4.394463623714446,0.4720101937502622
1774158172134169600,12.394169677734375,-0.617505290877819,5.546579649162292,0.6787607006989419
1774158172154162700,12.41416259765625,0.5465501786887645,4.854745970270037,0.8731919704310596
1774158172174154500,12.434154541015625,1.6449042188107967,3.037306087192893,1.3737619037114084
1774158172194147600,12.454147705078125,1.5477859068393707,1.526800401955843,1.680919681174308
1774158172214139400,12.474139404296874,1.377560273081064,0.757979344972968,1.5515312308475375
1774158172234132500,12.494132568359374,0.7677589807093143,-0.7160621112197637,1.520710852909088
1774158172254124500,12.51412451171875,-0.03873977276086807,-1.2617629796028136,1.3840776921510696
1774158172274117400,12.534117431640626,-0.3048959700107574,-2.9072844535291194,1.8885303120836614
1774158172294109700,12.554109619140625,-0.48278585478663444,-2.9515310070127247,1.5793137023948132
1774158172314102500,12.5741025390625,-0.9774562086343764,-3.3083997408449646,1.5617812605746089
1774158172334094600,12.594094482421875,-0.13599367554439232,-2.7668396255284544,2.3107751889288424
1774158172354087700,12.614087646484375,0.20739890612112358,-1.7490572517246006,2.9145038833886385
1774158172374079500,12.63407958984375,0.35865331569407133,-1.0768278524905444,2.926119794641435
1774158172394072600,12.654072509765625,1.0143746111869811,-1.4718798942446707,2.5506287779256698
1774158172414064600,12.674064697265624,0.09049334087371826,-1.7662281667560338,1.5666735626608133
1774158172434057500,12.694057373046874,-0.8597112882196902,-2.901469629770517,0.5658806098416447
1774158172454049500,12.714049560546876,-0.3578384556472301,-3.265970465916395,-0.24764526578634977
1774158172474042400,12.73404248046875,-0.05350597387128509,-1.3372574887871742,-1.1391883009441197
1774158172494034400,12.754034423828125,0.6924889279305935,2.583680275917053,-1.8178221603929996
1774158172514027500,12.774027587890625,2.075374779948592,8.003350285956262,-2.6775147439122198
1774158172534019600,12.79401953125,1.0272294165849685,8.646136148563027,-3.944262526190281
1774158172554012400,12.814012451171875,2.0633540872871876,5.002268189311027,-3.1638302341297266
1774158172574004500,12.83400439453125,2.1895675608396528,3.643516077074408,-2.281609300199151
1774158172593997600,12.85399755859375,1.7210937245219944,2.9758862805902955,-0.3459627244144678
1774158172613989600,12.87398974609375,1.0272709176391364,0.10569207904934882,1.0243313570559025
1774158172633982500,12.893982421875,0.6474941864281892,-2.571863581395149,0.8050847950190305
1774158172653975600,12.9139755859375,-1.4634417362451553,-3.173891317155957,1.4707152343794703
1774158172673967600,12.933967529296876,-0.1341530343800783,-2.0319412964135406,1.4308745146393775
1774158172693960400,12.95396044921875,5.702196911853552,-2.7058722388684746,1.1756707962974906
1774158172713952500,12.973952392578125,-2.0035639277130364,-4.286750267970562,-0.2204860407039523
1774158172733945600,12.993945556640625,1.68937815130949,-5.477024466899037,-0.31964740281030535
1774158172753937400,13.0139375,3.4607226381659504,-2.9213556489795445,0.3260026170559227
1774158172773930500,13.033930419921875,3.149742964327335,-2.310434997189045,1.7122415788941083
1774158172793922300,13.05392236328125,-1.7810124789118766,-2.854160181584954,2.415600422015786
1774158172813915400,13.073915283203124,-0.21215923412442206,-4.110775861427188,1.3955274530567228
1774158172833907700,13.09390771484375,-0.9064975893139838,-1.8418506862342356,-0.26846169771328565
1774158172853900500,13.113900634765624,-1.9204419923901557,-1.449969675731659,-0.013025047398358582
1774158172873892600,13.133892578125,-2.393967851400375,-0.4445265590190887,-0.7125774839743971
1774158172893885700,13.1538857421875,-3.0559564271271227,1.785651829150319,-1.2169172911822794
1774158172913877500,13.17387744140625,-2.349005258601904,4.206991087079048,-1.454381939215958
1774158172933870600,13.19387060546875,0.04205985709428787,7.08608931056559,-1.3773264643251895
1774158172953862400,13.2138623046875,-0.3651952481508255,10.500178207850455,0.11549334209561347
1774158172973855500,13.23385546875,1.9676678539454935,7.158609772375225,2.7067653883159157
1774158172993847600,13.25384765625,2.79310745472908,3.370601053214073,2.5557325308054684
1774158173013840400,13.27384033203125,0.33459318913817404,3.048037324565649,0.7376714470900595
1774158173033832400,13.29383251953125,-1.685402233415842,0.39451895779073237,0.806595637973398
1774158173053825500,13.313825439453124,-1.2523790651857851,-0.5146791226536035,0.9784621708065271
1774158173073817600,13.333817626953126,-0.4933744688183069,-0.800635998916626,1.8384839862801134
1774158173093810400,13.353810546875,1.2186515676289795,-2.2165081747353077,2.90981952496469
1774158173113802500,13.373802490234375,-0.25502573142647744,-4.272252956062555,3.4548107837736604
1774158173133795600,13.393795654296875,-1.188166997516155,-5.067210324820876,4.229372430235148
1774158173153787600,13.41378759765625,-1.4224468780338764,-4.870756609350442,4.890854225483537
1774158173173780500,13.433780517578125,0.46577042257785795,-2.796665439471602,4.3951726487666365
1774158173193772500,13.4537724609375,0.16921906879795715,-0.15939678122997283,3.090139851757884
1774158173213765600,13.473765625,-0.13001988009810447,-0.1829050825893879,3.368679729762673
1774158173233757400,13.49375732421875,0.7395137139558792,-1.4063123203128576,3.5473376763015985
1774158173253750500,13.51375048828125,-0.4674386480510235,-0.14131050491929054,3.0648025814056394
1774158173273743600,13.53374365234375,2.004388688099384,4.017723483720421,-0.3365952496755868
1774158173293735400,13.5537353515625,-0.7545838573157787,10.958960086715221,-4.351234430579841
1774158173313728500,13.573728515625,-4.784657704043388,8.79984377824068,-5.636601280871034
1774158173333720300,13.59372021484375,-0.44302199967503547,1.9569220035254955,-4.852715048964321
1774158173353713400,13.61371337890625,3.8064498002588745,2.889250784188509,-2.7926404217392204
1774158173373705700,13.633705810546875,1.1311199991703034,7.832793812808394,-3.4434921019017692
1774158173393698600,13.653698486328125,-1.8634955318093298,8.62956962916553,-4.303497989153862
1774158173413690600,13.673690673828125,1.1451508626103402,7.321828742241859,-2.997093611530959
1774158173433683700,13.69368359375,0.6819745481789111,4.805414076346159,-0.6053994041509926
1774158173453675500,13.713675537109374,0.6677870328724383,1.7155156321287155,-0.7001989177860319
1774158173473668600,13.733668701171876,0.1782195551216602,-0.5378448941856623,-0.5665135739829391
1774158173493660400,13.753660400390626,-0.18410919768214223,-3.109063747936487,1.5542340600654483
1774158173513653500,13.773653564453125,-0.4944365450918674,-4.23630427532494,2.849850501692295
1774158173533645600,13.7936455078125,0.1004512557864189,-4.988562320041656,1.708083290170878
1774158173553638400,13.813638427734375,0.3880295957714319,-4.975471367800235,0.5719117797646671
1774158173573630500,13.83363037109375,-1.237355099055171,-4.398304517051577,0.017075126506760716
1774158173593623600,13.85362353515625,-1.5739134507864714,-4.312212626007199,-0.02921601148173213
1774158173613615600,13.87361572265625,0.9451952764987945,-4.9981367885947225,-0.3132878777157515
1774158173633608700,13.893608642578124,1.0185048428595065,-4.340940707841515,-0.12686499626375733
1774158173653600500,13.9136005859375,1.041555463579297,-1.8349223482757806,0.1054171345654875
1774158173673593600,13.933593505859376,0.8034738526910543,-1.4803542926013469,0.38074258056841787
1774158173693585700,13.953585693359376,0.9726502696573733,-1.4118179319918154,0.9643935326393693
1774158173713578500,13.97357861328125,0.9947890362292527,-0.7879682405233382,1.3823057140424846
1774158173733570600,13.993570556640625,0.2986117386421189,0.1977402481496334,0.0581791441809386
1774158173753563600,14.013563720703125,0.5363455955386162,1.2271616218209267,-0.910659969690442
1774158173773555500,14.033555419921875,1.0475292772918938,2.7201065159261226,-1.198247004438564
1774158173793548500,14.053548583984375,-0.012640861253207548,3.4795723000645635,0.5281102666348219
1774158173813540400,14.073540283203124,-0.538785389906168,6.037380468100309,1.3477683614075182
1774158173833533400,14.093533447265624,-2.7501789981067177,4.7921997899860145,-0.6332431774314493
1774158173853525800,14.11352587890625,-1.778557486975193,4.974202955299615,-0.32344328796193
1774158173873518600,14.1335185546875,-0.9195056125123053,3.4107308190286156,-0.2175100936330855
1774158173893510400,14.153510498046876,-0.6455354535758495,1.0976040985375641,0.28166915247384455
1774158173913503500,14.17350341796875,-1.6342624132871626,0.5256014986842871,1.4794541288912295
1774158173933495600,14.19349560546875,-2.5907904001832005,0.375931161698699,2.2072280129536983
1774158173953488400,14.21348828125,-2.700152107656002,-0.06363631360828877,1.8167675367735325
1774158173973480400,14.23348046875,-2.111362039130926,-0.019743980389833448,1.5857289762645959
1774158173993473300,14.253473388671875,-2.1255928090572356,-0.05859422778785228,0.9779983526870608
1774158174013465300,14.27346533203125,-1.926592331713438,0.20093290671110153,0.46848826670181004
1774158174033458400,14.29345849609375,-0.6096587055632844,0.3092909900993109,0.31009101790320126
1774158174053450200,14.3134501953125,-0.11909867311120033,-0.4639887998580932,0.7200567338138818
1774158174073443300,14.333443359375,-0.6007488018661737,-0.8660948517769574,1.559122416628897
1774158174093435400,14.353435302734376,-0.8690776669800281,-1.2000491584897042,2.2254345546431837
1774158174113428500,14.373428466796875,-0.8716472252070904,-2.370148584395647,2.3214126105383035
1774158174133420500,14.393420654296875,-0.3433095795571804,-2.910017677885294,1.7185650828272103
1774158174153413400,14.413413330078125,-0.610187076818943,-2.6766853073507546,1.6983803729325533
1774158174173405400,14.433405517578125,-1.1427408788591622,-2.4958874261736868,0.17613829186819493
1774158174193398500,14.4533984375,-0.7401338916808367,-2.8388585675567386,0.10310520436130463
1774158174213391400,14.473391357421875,-0.8025123141825199,-1.1848106728255747,1.3556196594297885
1774158174233383400,14.493383544921874,-0.7617921812593936,-0.9651198741525411,2.289093226213753
1774158174253376500,14.51337646484375,-0.5982470481783151,-1.3960983848124742,2.2063528375543653
1774158174273368300,14.533368408203126,-0.28699732522666455,-1.6149872194528578,2.016450005032122
1774158174293361400,14.553361328125,-0.7074585335254668,-1.2489151884675025,1.9038598370321094
1774158174313353200,14.573353271484375,-0.21927637265324593,-0.12737082689404486,1.855015288233757
1774158174333346300,14.59334619140625,0.03474222755730152,0.3571107258945703,1.7401184507265686
1774158174353338400,14.61333837890625,-0.4281272128820419,0.39147944396436213,2.0453864689201113
1774158174373331200,14.633331298828125,-0.8767395799100398,1.2938520623028278,3.283505538085103
1774158174393323500,14.653323486328125,-0.768628749281168,1.6363719527870415,3.7961400031685826
1774158174413316600,14.673316650390625,-1.1832523374676704,0.34530630633234977,3.124576374366879
1774158174433308400,14.693308349609374,-0.909505538958311,1.5092027859449386,2.060796657889336
1774158174453301500,14.713301513671874,0.5698515592992306,4.48936776676774,0.7218477088838815
1774158174473293300,14.733293212890626,-0.8410217853188514,5.605725081092119,-0.09224296102002262
1774158174493286400,14.753286376953126,-3.1274855398118495,1.9358236859172582,-0.8380385317243635
1774158174513278500,14.773278564453125,-2.013826378530264,-1.0808183834314347,-1.7286524693384766
1774158174533271300,14.793271240234375,-1.4153157109797,-0.8908470157176256,-2.349845801079273
1774158174553263400,14.813263427734375,0.5077858560085297,1.249225569590926,-3.3623379595205187
1774158174573256400,14.83325634765625,-0.0643926849335432,3.281966491949558,-3.8263901800036426
1774158174593248300,14.853248291015625,-0.6228145032018423,2.7932494935482737,-3.1567861608371137
1774158174613241300,14.873241455078125,-0.5230810768285766,1.3908043700575827,-1.833985359686613
1774158174633233400,14.8932333984375,0.23822715683877466,0.7811071225821972,-0.523565024420619
1774158174653226500,14.9132265625,0.19621524880575014,-0.1689057833313942,0.5996631985865533
1774158174673218600,14.933218505859376,0.46084641017913813,-0.8037228590160608,0.8656408243991434
1774158174693211400,14.95321142578125,0.6721802993953228,-1.7485487176805734,0.6910719007395207
1774158174713203500,14.973203369140625,0.6190542738854885,-2.532732178968191,0.8009335205584764
1774158174733196500,14.993196533203125,-0.3667453636696562,-3.6939451185852286,1.9262522861041127
1774158174753188400,15.013188232421875,0.5243518274167552,-2.6021821472913027,2.0692187415368855
1774158174773181400,15.033181396484375,0.5138899815699085,-2.653715350651741,0.38065877474248405
1774158174793173200,15.05317333984375,0.63543308869116,-2.7099866884499786,-0.6644588382977992
1774158174813166300,15.073166259765625,1.3226906187742948,-2.5883985366106033,-0.7836226125344634
1774158174833158400,15.093158447265624,2.3278420590639115,-1.9005466208308934,0.16462153014093636
1774158174853151200,15.113151123046874,0.7316442957550287,-2.5072902791976928,0.28518998354375363
1774158174873145000,15.13314501953125,0.8784557361781596,-1.6887439450591801,0.07375168410502374
1774158174893138200,15.15313818359375,1.0465548793017863,-0.7575982367008924,-0.2399516425438225
1774158174913130000,15.1731298828125,0.20141400475893168,-0.40584699201285834,-0.4698697476554662
1774158174933123000,15.193123046875,-0.3892448167800903,-0.1448585527896881,-0.7852144848357886
1774158174953115100,15.213115234375,0.1973035372328013,0.6503764638662338,-1.072149704611674
1774158174973108000,15.23310791015625,1.9471791926681994,1.8818384132295847,-1.346421476843208
1774158174993100300,15.253100341796875,3.13225816104114,2.6678321388095614,-1.3477278832666575
1774158175013093000,15.273093017578125,1.7882728253036737,3.4055186373382806,0.3225400555118918
1774158175033085200,15.293085205078125,-0.28861818616045637,5.584363728633523,0.649942967819795
1774158175053078300,15.313078369140625,-1.4396540334224701,4.280117113566399,-0.9231152543768286
1774158175073070000,15.333070068359374,-1.488377440059185,2.1586112815618512,-1.3272788233473896
1774158175093063200,15.353063232421874,-1.1589227828532456,-0.03051847238242626,-0.009147840638831258
1774158175113055200,15.37305517578125,-2.0017682764679194,-0.9193570708870887,1.1584648099526762
1774158175133048000,15.393048095703126,-3.324675168341398,-0.10924304952919482,1.2732754304811358
1774158175153040100,15.4130400390625,-2.598832252341509,1.4370213468313215,-0.24578619391620157
1774158175173033200,15.433033203125,-1.1582540898114442,2.0035317790091036,-1.9118004207730293
1774158175193025000,15.45302490234375,0.019429503046604804,2.1274866599798203,-1.1942328734263776
1774158175213018000,15.47301806640625,0.1971346834719181,0.990931776279211,-0.2719441330015659
1774158175233010200,15.49301025390625,-0.18146014447808265,0.4147895924031734,-0.46853776839934286
1774158175253003000,15.5130029296875,-0.40257834560573097,-0.63106210706532,-0.46787689333781596
1774158175272995300,15.532995361328124,-0.554789014723897,-2.0703531523942944,-0.27634843237511814
1774158175292988200,15.55298828125,-0.4499795637279749,-2.833971380037069,-0.10365984256938099
1774158175312980200,15.572980224609376,-0.4698685055464506,-3.2116584454923864,0.13340185068659483
1774158175332973300,15.592973388671876,-0.4038695909926668,-3.409225090640783,0.611491583546251
1774158175352965000,15.612965087890625,-0.15325988591015338,-3.046517567652464,1.0927313048694283
1774158175372958200,15.632958251953125,0.45508591042365876,-2.8042706537783144,1.502368556010723
1774158175392950000,15.652949951171875,-0.10707155070900916,-2.3080980786740777,1.6768933482676744
1774158175412943000,15.672943115234375,-0.18691672938354312,-1.989025114750862,1.36421446929574
1774158175432935200,15.69293505859375,0.0058843087982386345,-1.9189274961739777,0.907052154456824
1774158175452928000,15.712927978515625,0.7518606428969651,-1.5308125602066516,0.5475357556600123
1774158175472920000,15.732920166015624,0.561318781818822,-1.2950930022746323,0.5883898171611129
1774158175492913200,15.7529130859375,0.05177512235753238,-0.47265492139458654,0.9267828369736671
1774158175512905200,15.7729052734375,0.8835440722931176,0.5942576862812042,1.041817767777294
1774158175532898300,15.792898193359376,1.3252894030958413,1.6606436397343873,0.9440059205837548
1774158175552890000,15.81289013671875,1.2023667877823114,2.396907411983609,0.6326654506087303
1774158175572883200,15.83288330078125,0.9583137012690305,2.515186585405469,1.3073451656043529
1774158175592875300,15.852875244140625,0.9495768525838851,2.4926222868978978,1.2617135875031351
1774158175612868000,15.8728681640625,-0.3925257746795192,3.6083629306286573,0.002000233906507492
1774158175632860200,15.892860107421875,-0.6370826825290918,5.106783625796437,-1.420606510864198
1774158175652853200,15.912853271484375,-2.03045076559484,5.924871694773436,-2.089173149807006
1774158175672845000,15.932844970703124,-2.8893554136067627,3.5341724897801874,-2.249325863970816
1774158175692838100,15.952838134765624,-2.271687041121721,-0.4021247566193342,-2.374687250738591
1774158175712830000,15.972829833984376,-1.4954554156213997,-1.8210574890524147,-2.7925191334471107
1774158175732823000,15.992822998046876,-1.514174144616723,0.345861602127552,-2.060638252457231
1774158175752815400,16.0128154296875,0.8116752793252467,1.5051520492494106,-1.7815208668254314
1774158175772808200,16.03280810546875,-0.6250450387328863,1.0935568689733743,-2.6898838116198776
1774158175792800300,16.05280029296875,-0.7577654099613428,-0.6280991656064987,-1.681491197451949
1774158175812793300,16.07279345703125,0.049598472438193854,-0.6973918975412845,-0.5788015392784029
1774158175832785200,16.09278515625,0.1480138750154525,-0.8084376125782727,0.21298063350990412
1774158175852778200,16.1127783203125,0.48349429531693455,-1.7519021197617053,0.40151283526606857
1774158175872768800,16.132768798828124,0.869749282631278,-2.5531220560461283,0.4004106461778283
1774158175892761300,16.15276123046875,1.4397516485780477,-3.0476071164548397,0.4034708374660462
1774158175912753700,16.172753662109375,1.0207032296866179,-3.5775954519212245,0.6505248593609779
1774158175932746500,16.19274658203125,1.068019619069621,-2.8942572141736744,0.9819383955497294
1774158175952738600,16.212738525390623,1.3348895906120537,-1.7681091581970452,0.6558765956524759
1774158175972731600,16.232731689453125,1.6789859366327524,-1.1056307531267404,-0.1192138969887048
1774158175992723500,16.252723388671875,1.6282700410045683,-1.556054553490877,-0.9796487502425908
1774158176012716500,16.272716552734376,1.7347551701277493,-2.0467752929300067,-0.9874518252089619
1774158176032708600,16.29270849609375,2.160270154684782,-1.4231278460353611,-0.2537569535996765
1774158176052701400,16.312701416015624,2.35313373670876,-0.7562994290620089,-0.35499051887020466
1774158176072693500,16.332693603515626,1.9529777959443628,-0.20352350772619246,-0.7017577646005898
1774158176092686300,16.352686279296876,1.3048480880916118,0.16119126343131066,-0.6046948360782116
1774158176112678400,16.372678466796874,0.7495954013787209,0.8159183237224816,-0.34664106206744905
1774158176132671500,16.39267138671875,0.8381699030190706,0.28223931704461575,-1.0796056466408073
1774158176152663600,16.41266357421875,1.8969167398959397,0.8029390151619911,-1.896212975540757
1774158176172656600,16.43265673828125,3.2505940330863,1.9059698149234054,-1.1692422245547174
1774158176192648400,16.4526484375,0.9515693415753543,2.2732962298840285,0.9364413305483757
1774158176212641500,16.4726416015625,0.09682911976650356,3.229185334354639,1.7565937847092747
1774158176232633600,16.492633544921876,-1.0667769255321473,3.386826211827993,-0.46577561020962893
1774158176252626400,16.51262646484375,-2.3739374552845955,2.748958516401052,-3.1131939796090125
1774158176272618500,16.532618408203124,-2.554067227941751,0.6396773751974105,-3.8580902633860705
1774158176292611600,16.552611572265626,-2.8971926831036803,-1.05639530531466,-2.335832911687344
1774158176312603400,16.572603271484375,-1.1224024397075176,-0.40592181081473827,-0.016119259687187148
1774158176332596500,16.592596435546874,-1.5523288109660147,-0.17909516891241073,0.8004219177745282
1774158176352588300,16.61258837890625,-2.682148833453655,1.1654600756675004,0.8892548511553555
1774158176372581400,16.632581298828125,-1.105293410931155,2.4315824195235964,0.1969084735006094
1774158176392573700,16.65257373046875,-0.08184767760336399,2.0958792233169077,-0.9795886175531894
1774158176412566500,16.67256640625,-0.04535941009633243,1.0642185462862253,-1.2482898961760103
1774158176432558600,16.69255859375,-0.5255531294979154,-1.0898358026236294,-1.7728434932425616
1774158176452551700,16.7125517578125,0.13457739727199078,-1.3864923520773649,-1.8935628994233906
1774158176472543500,16.73254345703125,0.19284904204197226,-1.0138093785196542,-0.7863064447909593
1774158176492536600,16.75253662109375,0.07570961323976516,-1.5998030943244694,-0.32757103541642424
1774158176512528400,16.7725283203125,-0.7128279516041278,-2.3287924916565417,1.155614535088092
1774158176532521500,16.792521484375,0.033367870464175935,-2.596122408860922,1.7736700071945786
1774158176552513500,16.812513427734373,0.8414416181661188,-2.8902608380138872,0.8306867076568305
1774158176572506400,16.83250634765625,0.5371535509206354,-2.603559865385294,-0.24421236872822044
1774158176592498400,16.85249853515625,0.521935450457409,-1.7292086419165134,-0.3569490325268358
1774158176612491500,16.872491455078126,0.2736275560438633,-0.5355500612467528,0.9343798679739236
1774158176632483600,16.892483642578124,0.41603930020332336,-0.8138578840613365,1.6632544067546724
1774158176652476700,16.9124765625,2.1686311557948588,-2.0690140127450225,2.2342469527825712
1774158176672468500,16.932468505859376,-0.540566428104043,1.0526397521734236,-4.4884784167125815
1774158176692461600,16.952461669921874,0.010644582002609967,-2.6888766804039475,3.516780333213508
1774158176712453600,16.97245361328125,0.7180855798713862,-1.2543839752674102,3.392731344218552
1774158176732446500,16.992446533203125,0.9456995727591216,-0.80558923740983,3.6596228700056668
1774158176752438500,17.0124384765625,0.8386696692347526,0.3236322346627712,1.8298033978268502
1774158176772431600,17.032431640625,0.5973972264159471,1.2597241672515869,0.9728519297093152
1774158176792423400,17.05242333984375,0.5927941165346652,2.4617916798263786,0.7100215158812702
1774158176812416500,17.07241650390625,0.27787162335440513,2.9022371070116755,0.64757901516743
1774158176832408300,17.092408203125,0.9590881927728653,4.374185974839329,0.4236396922044456
1774158176852401400,17.1124013671875,-0.21940080275051294,4.531040085849166,-0.4130132303804159
1774158176872393700,17.132393798828126,-2.0763556076794862,4.413666336834431,-0.9778975957263261
1774158176892386800,17.15238671875,-2.6527579037964344,2.71002117524147,-1.761390079075098
1774158176912379100,17.172379150390626,-1.9308435594171285,-0.4565133494108915,-2.1577236850723622
1774158176932372000,17.1923720703125,-0.4302893593519926,-1.6916121939718722,-1.953411803447455
1774158176952364000,17.212364013671873,0.003812982416898012,-0.3841267431139946,-1.5834817818596958
1774158176972357000,17.232357177734375,0.11747253321409225,0.8660662102043628,-1.7254986814826725
1774158176992349000,17.252348876953125,-0.18219671512432395,2.0714064608395097,-1.144311416111514
1774158177012342000,17.272342041015627,0.02343172899186611,1.1368600041270256,0.3078263974394649
1774158177032333800,17.292333740234376,0.32335634033083915,0.33178982215523717,1.2660216599605978
1774158177052327000,17.312326904296874,0.38514081552736457,-1.0230477469861508,1.7040256853431461
1774158177072319000,17.332319091796876,1.21316758325994,-2.1013713909924028,0.6317346725646406
1774158177092311800,17.352311767578126,1.166671862610057,-2.432766076350212,-0.3908190072942525
1774158177112303900,17.372303955078124,0.6469885749936104,-2.4930296986550093,-1.6009765220180152
1774158177132297000,17.392296875,0.10451076031029224,-2.525163789540529,-2.2626007944770157
1774158177152289000,17.4122890625,2.73538533360064,-3.823530698919296,-1.5937531466357409
1774158177172281900,17.43228173828125,3.8950679949104785,-2.8491239409834144,0.7369185098309069
1774158177192274000,17.45227392578125,-0.16963468212783336,-1.976005474179983,1.213671148867905
1774158177212267000,17.47226708984375,0.8365145370274781,-1.6107862606316803,-0.07354644385650753
1774158177232259000,17.492259033203126,1.4471497960053383,-1.7571049491018056,-0.1314019821062684
1774158177252252000,17.512251953125,1.8851665347389877,-1.3132505902558564,-0.014272563241422176
1774158177272244000,17.532243896484374,1.6106448063343763,-1.155527879717946,0.4715805701613426
1774158177292237000,17.552237060546876,1.4634037423223256,-0.27577333590090275,1.108712352529168
1774158177312228900,17.572228759765625,0.7472394128371029,1.5247750336080788,1.0093147705141454
1774158177332222000,17.592221923828124,0.06806479757502674,1.7055127090305089,-0.08807539301179348
1774158177352213800,17.6122138671875,0.5112193375885487,2.0993530369073152,-1.5808590321406721
1774158177372206800,17.632206787109375,2.9054022930443284,2.4928332993000746,-1.6417423937790094
1774158177392199000,17.652198974609377,1.994640616545081,3.588842237600684,0.40491888084989036
1774158177412191700,17.672191650390626,-0.352277314388752,3.8791222377598285,0.7005688470769673
1774158177432184000,17.69218408203125,-1.3742010257810353,2.58073896176815,-0.8086395648911595
1774158177452177200,17.71217724609375,-1.8069564829856157,2.241993913647532,-2.043461638337374
1774158177472169000,17.7321689453125,-0.018532851034402845,0.6585352204024791,-0.650720016606897
1774158177492162000,17.752162109375,-1.3717366814941168,0.41830958322286604,0.209718307245709
1774158177512153900,17.77215380859375,-3.4504134255975485,1.1824059497714041,0.29590485430359836
1774158177532147000,17.79214697265625,-3.053902417206764,1.0408885241031647,0.4203887641170993
1774158177552139000,17.812138916015623,-2.289547107461095,0.6506207940161228,-0.1231530630685389
1774158177572131800,17.8321318359375,-1.2634236062914133,0.555018147304654,-1.014512558352947
1774158177592124000,17.8521240234375,0.12107439363095909,-0.7653115875571965,-1.2701862322941422
1774158177612117000,17.872116943359377,0.6236112065374851,-1.19880704947412,-0.633623262790218
1774158177632108800,17.89210888671875,-0.06437803535368293,-0.6602519611924886,0.3350688072932884
1774158177652102000,17.912101806640624,0.12882511735558508,-1.4283265837222336,0.6528877160347998
1774158177672094000,17.932093994140626,-0.0995013711830601,-2.215721992793679,0.503811180223897
1774158177692087000,17.952087158203124,-0.44038054525554177,-2.751214186373353,0.2944171730291098
1774158177712079000,17.9720791015625,-0.039545243924856185,-3.033048429748416,0.3424306047655642
1774158177732072000,17.992072021484375,0.3156891667038202,-2.8990631531506774,0.28948190858401357
1774158177752064000,18.01206396484375,0.4026812214583158,-2.489900752979517,0.2685389276679605
1774158177772057000,18.03205712890625,-0.11918752043843268,-1.979551183962822,0.7258050682075321
1774158177792049000,18.052048828125,-0.13635726642608642,-1.6253279962033031,1.2199233411304653
1774158177812042000,18.0720419921875,-0.075306841125153,-1.5336089129269121,1.2699226129218935
1774158177832033800,18.09203369140625,0.20489830321073532,-1.3085486961752175,1.1584170983534305
1774158177852027000,18.11202685546875,-0.17594335381798445,-0.9351414999961852,1.0312360218778251
1774158177872019000,18.13201904296875,-0.4439203732868656,-0.6188298174798488,0.9260947085790335
1774158177892012000,18.152011962890626,-0.2793196302056312,0.8340297344744205,0.9232146961633115
1774158177912004000,18.172004150390624,-0.002323474511504173,1.5675351479262112,0.9571751256931572
1774158177931997200,18.1919970703125,0.12517587413303552,2.490422731027007,1.168395033140853
1774158177951989000,18.211989013671875,0.40195173813998697,3.034451282283664,1.118002524248138
1774158177971982000,18.231982177734373,0.5718062735635787,4.250785805141925,0.6199428932882846
1774158177991974100,18.25197412109375,0.5285983424127102,4.035632649898528,0.24480200518444178
1774158178011967000,18.271967041015625,-1.8022288699418305,3.4358570769786834,-0.9234560306385159
1774158178031959000,18.291958984375,-0.5266249965131282,1.5131635062694548,-1.7855387241646647
1774158178051952000,18.3119521484375,0.22838198158554732,-0.002239303359389305,-1.8880992271900177
1774158178071944000,18.33194384765625,-0.5010445650547742,-0.9817056827723979,-2.6554396902263164
1774158178091937000,18.35193701171875,-1.121761730651185,-1.1890168923437594,-2.955124063068628
1774158178111928800,18.3719287109375,-0.4088472698073834,0.7216933951050043,-2.855541699071228
1774158178131922000,18.391921875,0.46542497014105316,1.6362953804194926,-1.286731124381721
1774158178151914200,18.411914306640625,0.40949565071351823,1.1023252818405627,-0.42596725836917754
1774158178171907000,18.431906982421875,0.3306733853459358,0.42632220928668974,-0.836628518795967
1774158178191899100,18.451899169921877,1.106661338283494,-0.5159031114906072,-0.7944942082259804
1774158178211892200,18.471892333984375,0.6814128957081586,-1.5895651934266088,0.03804901401773095
1774158178231884000,18.491884033203124,0.5352139611601829,-2.2771581660091877,0.2948471619442105
1774158178251877000,18.511877197265626,0.8698977511912583,-2.482275080406666,0.3506688562788069
1774158178271869000,18.531868896484376,1.0286796884585172,-2.4016993224352596,0.49358613880760965
1774158178291862000,18.551862060546874,1.5290630861908197,-2.582335291048884,0.4541445744529366
1774158178311854000,18.57185400390625,1.472816736703366,-2.4854765067964792,0.46672509295418857
1774158178331847000,18.591846923828125,1.2351100966073572,-1.9209663085252044,0.2975130201525986
1774158178351839000,18.6118388671875,1.44215286450088,-1.9555659127414224,-0.18714330468103288
1774158178371832000,18.63183203125,2.273934527787566,-1.974207484847307,-0.12159706579819321
1774158178391824100,18.65182421875,2.0498579152457417,-2.084462341767549,-0.11637509336620569
1774158178411817000,18.67181689453125,2.4335581035107374,-1.005687446862459,-0.2123830329429358
1774158178431809000,18.69180908203125,2.4702801067084073,0.28696342295706273,0.07238689855784178
1774158178451802000,18.711802001953124,0.7143284192949533,1.0967471894472838,0.01680142413191497
1774158178471794200,18.731794189453126,0.639730566689372,0.6126257021427154,-0.6427690576024353
1774158178491787000,18.751787109375,1.264246613112092,1.958414872431755,-1.3497500367440283
1774158178511779000,18.771779052734374,2.7100743667334317,2.399419687065482,0.3395031364789232
1774158178531772200,18.791772216796875,0.7562731255769729,4.412347070929408,0.5920392795793712
1774158178551764000,18.811763916015625,-1.4035795343481003,3.9501632746666666,-0.6352073901765048
1774158178571757000,18.831757080078123,-1.5870838980048894,3.1883272542655465,-1.923098205987364
1774158178591748900,18.851748779296877,-1.374400493875891,1.6111019024521112,-2.044587719757855
1774158178611741200,18.8717412109375,-0.84616024418585,-0.5743810194224119,-0.5826972315426916
1774158178631734000,18.891734130859376,-2.4914865608662367,-0.18505846123099326,0.14820400902638212
1774158178651726000,18.91172607421875,-1.8558996698528527,0.09839256969094276,0.49142592856641854
1774158178671719200,18.93171923828125,-1.3602180931359529,0.6508849979102611,-0.3069684289032593
1774158178691711000,18.9517109375,-1.553820510828495,0.19623393523991106,-1.0835098144724964
1774158178711704000,18.9717041015625,-0.35057241016700863,-0.6231511878103018,-0.2090298500575125
1774158178731696000,18.991696044921873,-0.8485077571600675,0.5615928495198488,-0.5744308499135077
1774158178751689000,19.01168896484375,-0.2964396918326616,0.5130465530157089,-0.512074091254361
1774158178771681000,19.031680908203125,0.27657690736874935,-0.6465922691524029,-1.1013953075140714
1774158178791674000,19.051674072265627,-0.5401351240146904,0.09919394920170306,-1.2736468941420316
1774158178811666000,19.071666015625,1.1488063894432037,-1.9354858322650192,-0.13067512913644314
1774158178831659000,19.091658935546874,1.2574720044106245,-3.001230565205216,0.12609291591271757
1774158178851651000,19.111651123046876,0.3222299666494131,-3.223922299259901,0.3703478816736489
1774158178871643600,19.1316435546875,-0.2468886752653867,-2.73661692122221,0.15436192886792122
1774158178891635700,19.1516357421875,-0.23808387591056523,-2.8519495197981595,-0.14321246608309446
1774158178911628500,19.171628662109374,0.05881473867073655,-2.662808757689595,0.003847250012680888
1774158178931620600,19.19162060546875,0.5766437036573887,-2.344161910223961,0.753224040204659
1774158178951613700,19.21161376953125,1.2408262822970748,-2.407715221723914,1.1513264825053513
1774158178971605500,19.23160546875,1.115759859887883,-1.9113585222244263,1.2397701973728834
1774158178991598600,19.2515986328125,0.8977204086184501,-1.1499223147958517,1.109247482319176
1774158179011590400,19.27159033203125,0.24952187331318854,-0.023752046987414357,0.7787786796346307
1774158179031583500,19.29158349609375,0.019352935245633123,0.9049912764042616,1.107716619490087
1774158179051575600,19.311575439453126,0.49280631354153154,1.70207922745049,2.21422371705994
1774158179071568400,19.331568359375,1.7084961087554693,2.1382710888445375,3.2228339195013045
1774158179091560700,19.351560791015626,2.740965179559588,2.2483418213695288,2.3968916298925875
1774158179111553800,19.3715537109375,0.5210054761309176,2.1076105776429177,0.1438610479186289
1774158179131545600,19.391545654296873,-0.8103256182819605,2.731017786040902,-1.6464163769394158
1774158179151538700,19.41153857421875,-2.503821141782403,1.6759563596785068,-1.9131125262849031
1774158179171530500,19.431530517578125,-3.3068758922785517,-0.49465398723483084,-1.8322921459026633
1774158179191523600,19.451523681640627,-1.9856483317941427,-2.3074194487601516,-1.9896913235746323
1774158179211515600,19.471515625,-0.34340251853764053,-1.2432219452619553,-2.310305525590479
1774158179231508500,19.491508544921874,1.115775130522251,3.2581530701637265,-2.1837949687875806
1774158179251500500,19.51150048828125,0.021927242713049053,5.69945901132226,-1.2349999142311512
1774158179271493600,19.53149365234375,-0.8296387329738587,4.053790822401642,0.14539110703011973
1774158179291485400,19.5514853515625,-0.7704998038500547,2.6424212186992166,1.760074904823303
1774158179311478500,19.571478515625,0.3202490219652653,1.5546908639222383,2.4097182321093977
1774158179331470600,19.591470703125,0.26377719315886494,0.12851239814460277,1.3859452395886183
1774158179351463700,19.611463623046873,0.11500533938296138,-1.661207118836045,0.530316252246499
1774158179371455700,19.631455810546875,0.6135124949146061,-2.899789713859558,0.08026208891235291
1774158179391448600,19.651448486328125,0.8423152591954917,-3.416111343023181,-0.17280545765105634
1774158179411440600,19.671440673828126,0.7679582296084612,-3.8476001412928102,-0.06526669128909707
1774158179431433700,19.691433837890624,0.5365342499785125,-3.7416298298239705,0.375299037807621
1774158179451425500,19.711425537109374,1.1882580368004738,-3.576039454650879,0.16532167776692658
1774158179471418600,19.731418701171876,2.0021780263125897,-3.6069109782546755,-0.38670265801660714
1774158179491410400,19.751410400390625,2.156911491906643,-3.2135219012767076,-0.3458946276143193
1774158179511403500,19.771403564453124,1.481961727797985,-2.84116859806478,-0.40383674816899
1774158179531395600,19.7913955078125,1.2736334501385689,-2.165688088080287,-0.14533004275895653
1774158179551388400,19.811388427734375,1.2555471738278865,-0.8473515728622675,0.875682252876833
1774158179571380700,19.831380615234377,0.19867891723923384,0.657047027671337,1.9821461688920854
1774158179591373600,19.85137353515625,-0.830875069835782,2.278052484500408,2.29855005973652
1774158179611365600,19.87136572265625,1.244078269830346,2.803078229123354,-0.0937468262443319
1774158179631358700,19.891358642578126,0.8685358151882886,2.711895736941695,-0.5099878595648333
1774158179651350500,19.9113505859375,-1.9776099867671726,3.8520717337489128,-0.3467306400470435
1774158179671343600,19.931343505859374,-3.240791016474366,3.35738325972259,-1.761637185703963
1774158179691335700,19.951335693359376,-3.6986937744170425,0.6700386111915111,-1.5415332761853933
1774158179711327500,19.971327392578125,-1.7758184174001215,-1.6039450164347886,0.7286664489880204
1774158179731320600,19.991320556640623,-1.3176999708801507,-0.1592372067540884,4.056156382489204
1774158179751312400,20.0113125,-1.6205255643576382,2.9030858327955005,3.341818026322126
1774158179771305500,20.031305419921875,-1.071759463185072,4.277054218864441,0.23931341770552098
1774158179791297800,20.0512978515625,-1.3150649462014437,5.35342439071536,-1.8247054901659487
1774158179811290600,20.07129052734375,-1.993161776164174,6.122009885376691,-1.5219205209597944
1774158179831282700,20.09128271484375,-0.7176964344233274,4.4041719477802515,0.48832792601846153
1774158179851275800,20.11127587890625,0.5194920758932828,2.7355115903288123,0.8790683151185512
1774158179871267600,20.131267578125,-0.43881636467874047,1.24573071321249,-0.10643791071427985
1774158179891260700,20.1512607421875,-0.531852960294485,-0.4783551788628101,-1.1106292920663952
1774158179911252500,20.17125244140625,-0.29821137768030165,-1.7906886542737483,-0.7647272117979824
1774158179931245600,20.19124560546875,-0.04499881488932296,-3.181245187050104,-0.034045842790976166
1774158179951237400,20.2112373046875,0.30097147177709266,-4.614846496304869,1.0425703397102652
1774158179971230500,20.23123046875,0.44224696018192916,-5.410801059406995,2.339664598804712
1774158179991222500,20.251222412109374,0.3003963205039501,-5.21806256506741,2.7925957058146595
1774158180011215400,20.27121533203125,0.15654897231711074,-4.914518009665608,3.1128134558588263
1774158180031207700,20.291207763671874,1.1701987946271897,-4.067718225467205,4.021712261095643
1774158180051200500,20.311200439453124,1.972860746413469,-2.351713348516822,4.435662772326171
1774158180071192600,20.331192626953126,1.2327069809883833,-1.2122545600682497,3.1324954769283533
1774158180091185700,20.351185546875,0.8636392753183841,-0.3971124814152717,1.19382750749588
1774158180111177500,20.371177490234373,-0.7253507485687732,0.7999848415315151,0.11608107885569334
1774158180131170600,20.391170654296875,-3.4287025290489193,2.0375562136858703,-0.2851791698887944
1774158180151162600,20.41116259765625,-3.620623277264833,3.2776199871778484,-0.0196950266815722
1774158180171155500,20.431155517578127,-2.241964103031158,4.804295885971189,0.4358554690465331
1774158180191147500,20.4511474609375,-0.5697434227496385,5.242580335730314,0.9038578884601592
1774158180211140600,20.471140625,3.4997131708174942,4.088555846312642,1.1175512002840637
1774158180231132400,20.49113232421875,1.0788105507403611,2.1752631411552428,0.6909142259597778
1774158180251125500,20.51112548828125,-1.1591811415284872,1.4339870937019585,0.08083528569042682
1774158180271117600,20.53111767578125,-1.0186889672547579,1.3160130407065151,-0.42323096527308224
1774158180291110400,20.5511103515625,-0.9708826754629611,1.2869067732095718,-0.9367501042366028
1774158180311102700,20.571102783203123,-1.4110849415421485,1.2544511952847242,-1.5261518749192355
1774158180331095600,20.591095458984373,-1.844069531327486,0.0448819287776947,-1.846096653240919
1774158180351087600,20.611087646484375,-2.085550721526146,-0.12090016957521438,-2.3170693206369877
1774158180371080700,20.631080810546877,-2.156371393680572,0.4276525811076164,-2.607641581740975
1774158180391072500,20.651072509765626,-2.75082781740427,0.3425444404035806,-2.058598271062225
1774158180411065600,20.671065673828124,-2.465882748532295,-0.09567045125067233,-0.9410345035575329
1774158180431057400,20.691057373046874,-1.5282143604069947,-0.6733809073567391,0.03544160799831152
1774158180451050500,20.711050537109376,-0.9949439345300197,-1.2172224116086958,0.8522697400420903
1774158180471042600,20.73104248046875,-0.31490181571841236,-1.5663620124936104,1.7112874930396675
1774158180491035400,20.751035400390624,1.9126468084692954,-1.7329425677478312,2.765933032077551
1774158180511027500,20.77102734375,3.0195781228005885,-2.1279747357577086,3.440755370414257
1774158180531020500,20.7910205078125,0.7451952667236328,-2.6107185049682853,2.399785743898898
1774158180551012600,20.8110126953125,0.5968891307633369,-2.86856572355628,1.0751232405297457
1774158180571004700,20.831004638671875,0.22784370999038217,-3.178514885303378,0.5141387321665882
1774158180590997500,20.85099755859375,-0.08702529943697154,-2.88410173086226,0.19719182048663494
1774158180610989600,20.870989501953126,0.1403057117909193,-2.164931132233143,-0.0732289023399353
1774158180630982700,20.890982666015624,0.2338345479030162,-1.7534247992843388,0.21900237801745534
1774158180650974500,20.910974365234374,1.720907846561074,-1.2848533478111028,0.9293066563628614
1774158180670967600,20.930967529296876,2.041772954598069,-0.26528525963425637,1.6766865736491978
1774158180690959400,20.95095947265625,0.07993227243609725,0.4079179530680179,1.2500342556253075
1774158180710952400,20.970952392578123,0.09986739148385822,1.2004910570383072,0.309260887221992
1774158180730944500,20.990944580078125,1.34750415751338,1.6749305237621068,0.4756513267315924
1774158180750937300,21.010937255859375,0.27650530343726276,3.0994916174709797,1.2737431941233575
1774158180770929700,21.0309296875,-2.108783128553629,4.772739887234568,1.1350059006929396
1774158180790922800,21.0509228515625,-1.8135383455939589,3.9358611930698153,0.7160586040884256
1774158180810914600,21.07091455078125,-1.8531003945231437,1.6626964806109665,0.8335860823601484
1774158180830907600,21.09090771484375,-2.7310890977114437,0.7807686844080686,0.8859053215317427
1774158180850899500,21.1108994140625,-3.199695620498061,1.3767179770380258,0.6085369715243577
1774158180870893300,21.130893310546874,-3.012512422198057,1.9953093095868826,0.6150260412827134
1774158180890885000,21.150885009765624,-2.4743939717680212,2.6076369055658577,0.9143383659422397
1774158180910878200,21.170878173828125,-2.027555628675222,3.112797089245915,1.1940054944112897
1774158180930870300,21.190870361328123,-1.4350000701367853,2.1349796460837123,1.3800665568135677
1774158180950863000,21.210863037109377,-1.3542296663761137,1.3719050237983463,1.0642661848202346
1774158180970855200,21.230855224609375,-1.6098896040529012,0.45046822402775283,0.9417555113084614
1774158180990848300,21.25084814453125,-1.4205284771919249,-0.8969406564176082,1.036082000604272
1774158181010840000,21.270840087890626,-0.9656318422626703,-1.8140122467160225,1.0623188501447438
1774158181030833200,21.290833251953124,-0.45948856582939623,-2.566079152774811,1.072450221928209
1774158181050825200,21.3108251953125,-0.07400507434420288,-3.681694708821177,1.0793903964549303
1774158181070818300,21.330818359375,0.3526111494529992,-4.6988042979300015,1.1073904562756418
1774158181090810400,21.350810302734374,0.36877369115948677,-5.3919537355959415,1.2784569247722626
1774158181110803200,21.37080322265625,0.12230915959030389,-5.345669538804889,1.4824636859707534
1774158181130795300,21.390795166015625,0.029081717577576636,-4.605484793719649,1.5654926823131738
1774158181150788400,21.410788330078127,-0.2082723096884787,-3.1039778229743242,1.343527947358787
1774158181170780200,21.4307802734375,-0.4740250407040119,-1.5591168636709452,1.1882707501515746
1774158181190773200,21.450773193359375,-0.5238695603251456,-0.22069208467006682,0.9702190969876945
1774158181210765000,21.47076513671875,-0.23103885276988148,0.22362930716574192,0.8483969902619719
1774158181230758100,21.490758056640626,-0.25857261025309564,1.5554507423788309,0.6264496448338032
1774158181250750200,21.510750244140624,-0.3228038210146129,3.8360406364023683,0.25301687582209703
1774158181270742300,21.5307421875,-0.5881938561975956,5.672130274891853,0.6481627333395182
1774158181290735400,21.5507353515625,-0.23419395579993724,5.451471507969498,1.6880648767538369
1774158181310727200,21.57072705078125,2.3310988689027727,6.050690031528473,2.1920950334906575
1774158181330720300,21.59072021484375,4.871331778889894,4.265505819889903,2.5962679548114536
1774158181350712300,21.61071240234375,-1.4153478596836329,1.8888567675590513,1.1557966136567295
1774158181370705200,21.630705078125,-0.9320527402006089,0.5417027386575937,0.04736833876594901
1774158181390697200,21.650697265625,0.2079800487436354,-0.5277975474238396,-0.5247584719888866
1774158181410690300,21.670690185546874,0.21826281169652936,0.6699766518712044,-1.3929352446064351
1774158181430682000,21.69068212890625,-1.5251187324792146,1.629675670018792,-2.2012821101613342
1774158181450675200,21.71067529296875,-3.3395062422484156,1.963166450873017,-2.8790333415567875
1774158181470667000,21.7306669921875,-4.195312924245,1.6380390092164276,-3.0936554586634037
1774158181490660000,21.75066015625,-3.450432714819908,-0.0919686741232872,-2.5541893930166957
1774158181510652400,21.77065234375,-1.9013719657391308,-1.7197060695558786,-1.3640769605211913
1774158181530645200,21.790645263671873,-1.1900579258292914,-2.3354881899029016,-0.30676556327492
1774158181550637300,21.81063720703125,-0.8860486024599522,-2.9623639511942863,0.5948309561245143
1774158181570630400,21.83063037109375,-0.4140074290495366,-3.442472695726156,1.2461273113146423
1774158181590622200,21.850622314453126,0.0886122033022344,-3.4440532429158686,1.6044180407740174
1774158181610615300,21.870615234375,0.6785591867774724,-3.2245664423823355,1.6142231032125651
1774158181630607000,21.890607177734374,1.4542233876533806,-3.0446225476861,1.5477052428185938
1774158181650600200,21.91060009765625,2.3546809661507604,-2.608095755249262,1.5980878148391842
1774158181670592300,21.93059228515625,2.8370255069106816,-2.351675354593992,1.2074033206447958
1774158181690585000,21.950585205078124,4.751771918007731,-2.5012492454677817,0.300209127368778
1774158181710577200,21.9705771484375,2.5827935562103983,-2.2475281668990847,-0.2251549092978239
1774158181730570000,21.990570068359375,1.7166088341929018,-1.8250673092156648,-0.522888878724724
1774158181750562300,22.010562255859377,2.370950548428297,-1.1294266392558812,-0.5717917335815728
1774158181770555100,22.03055517578125,1.1284455192640424,0.2524170102328062,-0.2332392854236066
1774158181790547200,22.050547119140624,-0.30985549211427565,1.869637103304267,-0.008130114963650703
1774158181810540300,22.070540283203126,-0.16155600509047507,3.4747833122223613,-0.20929156973361968
1774158181830532400,22.090532470703124,1.6436901668459176,4.814796237197518,-0.46008667785301804
1774158181850525200,22.110525146484374,2.396580225855857,6.031501931455731,-0.1719364562641829
1774158181870516500,22.1305166015625,-1.8620218059949576,5.6290591949284075,0.3920737931283191
1774158181890509600,22.150509521484373,-2.484630119100213,3.603727087521553,-0.31097868745792656
1774158181910501400,22.17050146484375,-0.6619207711875438,1.4044588014006614,-1.2013299920804799
1774158181930494500,22.190494384765625,-1.7181809058152138,0.47062663043737407,-1.19510498008579
1774158181950486800,22.21048681640625,-4.435062176084518,-0.2002414173156023,-0.2538930376021191
1774158181970479600,22.230479736328125,-4.236626346886157,0.43583822565078734,0.9977047044802456
1774158181990471700,22.2504716796875,-3.143674458068609,2.1900229033917187,2.0951175912946463
1774158182010463500,22.27046337890625,-1.5751795251995324,3.336598245847225,2.460834817492962
1774158182030456600,22.29045654296875,0.31480193554051217,0.9986521413981914,1.3237746146187186
1774158182050448600,22.31044873046875,-0.25663945023342966,-1.1146166081368922,0.16697974717225877
1774158182070441500,22.33044140625,-1.1279641654878854,-2.0542466517239806,-0.1939401982795447
1774158182090433500,22.35043359375,0.0009704524673521518,-2.3441899672746658,-0.45028789902478455
1774158182110426600,22.370426513671877,1.5314977659918367,-2.5706781710028648,-0.6581122457500547
1774158182130418400,22.39041845703125,2.877944377276301,-3.454292897379398,-0.7347127434149384
1774158182150411500,22.41041162109375,0.5069406373560428,-4.145941867354512,-0.37502288774736225
1774158182170403600,22.430403564453126,0.8379409165687859,-5.108416195434332,0.22285324475932866
1774158182190396700,22.450396728515624,0.9857024973236024,-4.5303047573119395,0.4552446446493268
1774158182210388700,22.470388671875,0.48006548991203307,-3.387189784443378,0.6064210388163104
1774158182230381600,22.490381591796876,0.2754062561541796,-3.0863305226027964,0.8059472570672631
1774158182250373600,22.51037353515625,0.35630350116491316,-2.2370979582995174,1.36470868255347
1774158182270366700,22.53036669921875,0.29547230810523034,-0.6769581813216209,1.7941401099018752
1774158182290358500,22.550358642578125,0.4741517358236015,1.0331243198424578,1.7120070394858717
1774158182310351600,22.5703515625,0.424178767517209,2.1982179002851248,1.102002333496511
1774158182330343400,22.590343505859376,0.18443945254981517,3.1905197958737608,0.9276075973600149
1774158182350336500,22.61033642578125,-0.3333263840727508,4.157643411064147,1.723029514890164
1774158182370328600,22.63032861328125,0.6992424938440323,4.776886485520005,2.7286653776958585
1774158182390321400,22.6503212890625,1.3026064466446636,4.802472762197255,2.86479847997725
1774158182410313700,22.670313720703124,-0.36906653662621974,4.68045557129085,1.0128723899304866
1774158182430306600,22.690306640625,-0.3131312258493155,4.069450748348236,-1.1252896855816243
1774158182450298600,22.710298583984375,-2.1514396363668142,1.4962503653913735,-2.252886186800897
1774158182470291700,22.730291748046874,-2.6767086882263422,-0.8869242893159389,-2.2056673395082353
1774158182490283500,22.750283447265623,-2.4921692824333905,-2.7197277457416056,-2.6677985288009047
1774158182510276600,22.770276611328125,-1.8262084420748055,-2.2469991745889186,-3.2128231053575873
1774158182530268700,22.7902685546875,-1.3485469445645808,0.7169312952697277,-2.942166089557111
1774158182550261500,22.810261474609376,-0.5979109480917454,2.7333237248957154,-1.7809163250610232
1774158182570253600,22.830253662109374,-0.6122130296885967,3.0854145768016576,-0.6412564610823989
1774158182590246700,22.85024658203125,-0.22544234793707726,1.5518676231950521,0.13803572103232145
1774158182610238500,22.870238525390626,0.07345277422368526,0.28205636169314385,0.2964726442541927
1774158182630230800,22.890230712890624,0.31658976880535483,-0.8479612291932106,0.5041248492829501
1774158182650223600,22.9102236328125,0.5187378965251147,-1.9450088628917932,0.9332881272144615
1774158182670215700,22.930215576171875,0.8182038043111562,-3.095696901363134,1.3378122000604866
1774158182690208800,22.950208740234373,1.019773109229654,-3.898817118310928,1.3794903643608092
1774158182710200600,22.97020068359375,1.0544640449911356,-4.489426803478598,0.9405887325514107
1774158182730193700,22.990193603515625,0.994832436979562,-4.998030405610799,0.608912051914446
1774158182750185500,23.010185546875,1.058614004277438,-4.940635616740584,0.4395672561112791
1774158182770178600,23.030178466796876,1.6475613091908394,-3.6972225328207013,0.06815653097908944
1774158182790170600,23.050170654296874,2.1508190202504394,-1.976639680430293,0.20461776923630384
1774158182810163500,23.07016357421875,2.002458889080584,-0.8862596879273652,-0.16074520016424357
1774158182830155500,23.090155517578125,2.006175571516156,-0.18430501251518724,-0.39504908261206
1774158182850148600,23.110148681640624,1.9156829612947999,0.6752063692182302,0.1447091709142551
1774158182870140700,23.130140625,1.1828712291955947,2.482354575383663,0.5695202815182506
1774158182890133500,23.150133544921875,0.37809813047423957,4.445990981855989,0.4790819222347811
1774158182910125800,23.170125732421877,0.30663638393729925,4.95789479457736,-0.3176037681534886
1774158182930118700,23.19011865234375,0.8262491636008024,4.368826493632793,0.431628316338174
1774158182950110700,23.21011083984375,0.27933775038421155,5.5290609436064955,0.9783519884303211
1774158182970103800,23.230103759765626,-0.6961170552998781,3.5271325081408023,-1.2891032603405415
1774158182990095600,23.250095703125,-2.247805814796686,1.0684762037307023,-1.2583330051541328
1774158183010088700,23.270088623046874,-3.0034342127293345,-0.9371563469499349,-0.42526868164576587
1774158183030080500,23.29008056640625,-3.163054281321168,-0.626973960968852,0.5823439245929941
1774158183050073600,23.310073486328125,-3.1926468710303304,0.892726253592968,1.2467941046603024
1774158183070065700,23.330065673828123,-3.3365713578402993,2.046103092756867,1.2848092164084315
1774158183090058500,23.35005859375,-2.739503290313482,1.6611586035192012,0.7222538785319775
1774158183110050600,23.370050537109375,-2.011348590239882,0.46458559670746324,-0.21666898490013553
1774158183130043600,23.390043701171876,-0.6480481670491397,-0.529611318847537,-0.5258033779319375
1774158183150035700,23.41003564453125,1.9439654913187026,-1.3539859207481144,0.06322691082349047
1774158183170028800,23.43002880859375,1.1775665469162166,-2.094936389508843,0.5934340949386357
1774158183190020600,23.4500205078125,-0.7036240699291229,-2.8439240342527627,0.0808976286032237
1774158183210013700,23.470013671875,-0.7199215631268918,-2.763458166396618,0.08545067053139209
1774158183230005800,23.490005859375,0.8383775544203818,-3.3562264909029005,0.07464012084472924
1774158183249998600,23.50999853515625,0.9273264423310756,-3.112206137615442,0.1182762508124113
1774158183269990700,23.52999072265625,0.28143340748921036,-3.474653548362851,0.3689569387719035
1774158183289982500,23.549982421875,0.0828415109463036,-3.3797131649523973,0.9790827869229018
1774158183309975600,23.5699755859375,0.022298341047763823,-2.584817755514383,1.487347804750502
1774158183329967600,23.589967529296874,0.7216413726568222,-2.0940029080510136,1.4972583733901381
1774158183349960400,23.60996044921875,-0.17017010417878628,-0.709086426988244,1.1268648990090935
1774158183369952800,23.629952880859374,-0.039514848786592484,-0.0015776245802640915,1.2828981220901012
1774158183389945900,23.64994580078125,-1.2083026075720786,0.47860886136293407,0.758975370272994
1774158183409937700,23.669937744140626,0.3623457039386034,1.5534095919400452,1.0764314735841005
1774158183429930800,23.6899306640625,0.07895487877130508,2.1455577387213705,1.7796391447320579
1774158183449922600,23.709922607421873,0.039941111374646426,3.1333763514161106,2.8999677007749676
1774158183469915600,23.72991552734375,-0.36874154245555396,2.7057436440527436,2.575041626909375
1774158183489907700,23.74990771484375,-1.2502239329785108,3.2796360031753777,0.6046550155244768
1774158183509900500,23.769900634765627,0.9221236129909753,4.736616434451937,-0.43061245382651686
1774158183529892600,23.789892578125,-1.30229182773754,2.4809943929463625,-2.975579698859155
1774158183549885700,23.8098857421875,-2.5677988161742684,-0.0005745850175619125,-4.3320489608556025
1774158183569877500,23.82987744140625,-1.3128339722789824,-1.2590887919574976,-3.7715579350978135
1774158183589870600,23.84987060546875,-0.8183101872950792,-1.4141320541530846,-3.3791774506404995
1774158183609862700,23.869862548828124,-0.7428145090669394,0.7100017882674932,-2.6062624023422596
1774158183629855700,23.889855712890625,-1.3786322862267493,1.8234733180224894,-2.1138243375912307
1774158183649847800,23.909847900390623,-0.9615443537533283,2.3676152665257453,-1.5287255247995257
1774158183669840600,23.929840576171873,0.027339257824420926,2.4751328074365855,-0.5338688301615416
1774158183689832700,23.949832763671875,0.7251179627262055,1.252524611136317,0.17483794985935092
1774158183709825800,23.96982568359375,0.7581406730145216,-0.09323825566768645,0.2450267538510263
1774158183729817600,23.989817626953126,0.7497424086339771,-1.6799872226297854,0.0934032004384324
1774158183749810700,24.009810791015624,0.9156932876825332,-3.3133559019476175,-0.12032094491515308
1774158183769802500,24.029802490234374,0.8392356325544417,-4.452053642895818,0.2121818112824112
1774158183789795600,24.049795654296876,0.9170938021302223,-4.886979429876804,0.3758502419495955
1774158183809787600,24.06978759765625,1.2312608738332986,-5.210680638122558,0.45290714161247014
1774158183829780500,24.089780517578124,1.4238691659219562,-4.728704930675029,0.40261747203972187
1774158183849772800,24.109772705078125,1.2441431517601012,-3.5916157939672466,0.5304212835235521
1774158183869765600,24.129765625,1.5180257054783404,-2.275598661607504,0.606519311559014
1774158183889758500,24.149758544921873,1.9516043156340717,-1.3558832788020372,0.24059702777527273
1774158183909750500,24.16975048828125,2.296505256035924,-0.7795844430595635,-0.6411175640683621
1774158183929743600,24.18974365234375,1.764060759589076,-0.34802959381639953,-0.6313642318170517
1774158183949735400,24.2097353515625,1.8041865798808634,0.7794213614523411,0.14130984733216465
1774158183969728500,24.229728515625,1.1564812349200249,2.4324609559237955,0.7685266771461814
1774158183989720300,24.24972021484375,0.6748369513839483,3.763018654811382,0.36083661454990507
1774158184009713400,24.26971337890625,1.928240683442354,5.560946612688899,0.07935083755264058
1774158184029705500,24.28970556640625,2.322401767706126,5.1051364431113,1.0083093928638844
1774158184049698300,24.3096982421875,-0.34231180069148537,5.651447552347183,2.2980137609027325
1774158184069690400,24.3296904296875,-1.5769471193939446,4.096327649357915,0.4388820868587121
1774158184089683500,24.349683349609375,-2.060944688057899,2.437140638172626,-1.5799429402090608
1774158184109675500,24.369675537109377,-2.839598572269082,-0.4243272360771894,-2.6063153015732765
1774158184129668400,24.38966845703125,-3.258678555342555,-1.7864707443177699,-2.11276226131767
1774158184149660400,24.409660400390624,-3.534247308582067,-0.5364397035628556,-0.88820424612388
1774158184169653500,24.429653564453126,-3.3540193362474437,1.2213503051936625,0.22708951235590502
1774158184189645600,24.4496455078125,-2.1045237175434828,2.4800240866094825,0.996360450264439
1774158184209638400,24.469638427734374,-0.1302664022050798,1.81088330104053,0.5669337356237695
1774158184229630500,24.48963037109375,-0.6224481541074812,0.30516601912379265,-0.44743630898594855
1774158184249623600,24.50962353515625,0.20175006831288336,-1.1530208653330802,-0.6809358527809382
1774158184269615400,24.529615478515623,1.388122729758173,-2.195926574477553,-0.7471862213451415
1774158184289608400,24.5496083984375,0.18118308110237122,-2.7535797464609146,-0.5878770818660035
1774158184309600300,24.569600341796875,0.24058438748940825,-3.50067178671658,-0.2782262820109725
1774158184329593300,24.58959326171875,0.6056349664725363,-3.8306671266704795,0.01987630153261125
1774158184349585400,24.60958544921875,0.4726099132090807,-4.090770599752664,-0.2662703616814688
1774158184369578200,24.629578125,0.8707477921493351,-4.219603315892815,-0.2860678988894447
1774158184389570600,24.649570556640626,0.5840814524427056,-4.06707525138855,0.028832272861152884
1774158184409563600,24.669563720703124,0.8194394835859536,-3.2541268833875656,0.8135917074058204
1774158184429555500,24.689555419921874,1.2695236767321825,-2.0410452248454094,1.4278919916972517
1774158184449547500,24.709547607421875,1.3342413558363915,-1.0805459962308406,1.197654372307658
1774158184469540400,24.729540283203125,0.7373221952609718,-0.0489472785204649,0.8244332002200185
1774158184489532400,24.749532470703127,0.3702566231936216,1.1475818891495466,0.6350318874791264
1774158184509525500,24.769525390625,0.3037902007259428,2.2663936108887195,0.7560195161420852
1774158184529517300,24.789517333984374,0.045720717689394945,3.05038534899652,1.1391397856272756
1774158184549510400,24.809510498046876,0.5818547163039446,3.8700212319374083,1.9207912442192434
1774158184569502500,24.82950244140625,1.0913520524054765,4.69832382093668,2.6895371901392937
1774158184589495300,24.849495361328124,0.7620546315878629,5.708069603279233,1.4970852087803184
1774158184609487600,24.869487548828126,0.20148980994150043,5.301245290666818,-0.5516332541067153
1774158184629480400,24.88948046875,-1.1856857020944356,2.3610873260617256,-1.9155153496429322
1774158184649472500,24.909472412109373,-2.280145072865486,0.09417056808173656,-2.084817146554589
1774158184669465600,24.929465576171875,-2.1161890208959577,-2.3323165741294622,-2.557372699227929
1774158184689457400,24.94945751953125,-2.331233455067873,-2.8673411501973867,-2.9235850154668093
