time,seconds_elapsed,z,y,x
1774158159793747700,0.053747802734375,-0.9905853271484375,-0.27789306640625,-0.0484466552734375
1774158159813740500,0.073740478515625,-0.94842529296875,-0.272796630859375,-0.0352020263671875
1774158159833733600,0.093733642578125,-0.9565277099609375,-0.2636260986328125,-0.0416412353515625
1774158159853723600,0.1137236328125,-0.9753875732421875,-0.257904052734375,-0.0446929931640625
1774158159873716500,0.133716552734375,-0.991729736328125,-0.252349853515625,-0.02642822265625
1774158159893708500,0.15370849609375,-0.9957275390625,-0.22930908203125,-0.0343170166015625
1774158159913701600,0.17370166015625,-0.975372314453125,-0.194580078125,-0.0566864013671875
1774158159933694500,0.193694580078125,-1.0045928955078125,-0.2160797119140625,-0.04827880859375
1774158159953686500,0.2136865234375,-1.017364501953125,-0.158599853515625,-0.08599853515625
1774158159973679600,0.2336796875,-1.0868377685546875,-0.16790771484375,-0.1509552001953125
1774158159993672400,0.25367236328125,-1.0749359130859375,-0.229339599609375,-0.1538848876953125
1774158160013664500,0.27366455078125,-1.0785980224609375,-0.2348480224609375,-0.1685791015625
1774158160033657600,0.29365771484375,-1.0020294189453125,-0.188629150390625,-0.1595458984375
1774158160053649400,0.3136494140625,-0.9446258544921875,-0.2324676513671875,-0.1646270751953125
1774158160073642500,0.333642578125,-0.894378662109375,-0.28948974609375,-0.2008819580078125
1774158160093635600,0.353635498046875,-0.8757781982421875,-0.342437744140625,-0.2066192626953125
1774158160113627400,0.37362744140625,-0.8653411865234375,-0.3568572998046875,-0.2077178955078125
1774158160133620500,0.393620361328125,-0.8405303955078125,-0.3716583251953125,-0.2170257568359375
1774158160153613300,0.41361328125,-0.8640899658203125,-0.38299560546875,-0.198760986328125
1774158160173605400,0.43360546875,-0.9004669189453125,-0.363616943359375,-0.18719482421875
1774158160193598500,0.453598388671875,-0.9323272705078125,-0.3549957275390625,-0.21087646484375
1774158160213591300,0.47359130859375,-0.9163818359375,-0.3423919677734375,-0.253387451171875
1774158160233583400,0.493583251953125,-0.8742218017578125,-0.3619537353515625,-0.2665863037109375
1774158160253576400,0.513576416015625,-0.88739013671875,-0.332061767578125,-0.28045654296875
1774158160273568500,0.533568603515625,-0.92529296875,-0.2529144287109375,-0.313629150390625
1774158160293561300,0.553561279296875,-0.93475341796875,-0.2395477294921875,-0.35687255859375
1774158160313554400,0.573554443359375,-0.9702301025390625,-0.2810211181640625,-0.386322021484375
1774158160333546500,0.59354638671875,-0.9448699951171875,-0.2510986328125,-0.3839263916015625
1774158160353539600,0.61353955078125,-0.900115966796875,-0.220794677734375,-0.40673828125
1774158160373532400,0.633532470703125,-0.8751983642578125,-0.234161376953125,-0.4141845703125
1774158160393524500,0.6535244140625,-0.8659515380859375,-0.22869873046875,-0.4222564697265625
1774158160413517600,0.673517578125,-0.8489990234375,-0.193572998046875,-0.4334259033203125
1774158160433510700,0.6935107421875,-0.824554443359375,-0.2037811279296875,-0.43109130859375
1774158160453502500,0.71350244140625,-0.7768096923828125,-0.2480316162109375,-0.4307861328125
1774158160473495600,0.73349560546875,-0.7379150390625,-0.290008544921875,-0.4200439453125
1774158160493487400,0.7534873046875,-0.71240234375,-0.3087310791015625,-0.4043121337890625
1774158160513480400,0.77348046875,-0.697296142578125,-0.2880859375,-0.3961181640625
1774158160533473500,0.7934736328125,-0.7023162841796875,-0.285491943359375,-0.4015350341796875
1774158160553465300,0.81346533203125,-0.7295379638671875,-0.29901123046875,-0.4097442626953125
1774158160573458400,0.83345849609375,-0.74493408203125,-0.3007049560546875,-0.421478271484375
1774158160593451500,0.853451416015625,-0.7956390380859375,-0.3312835693359375,-0.4399566650390625
1774158160613443300,0.873443359375,-0.850372314453125,-0.315399169921875,-0.483367919921875
1774158160633436400,0.8934365234375,-0.8940887451171875,-0.2980499267578125,-0.508819580078125
1774158160653428500,0.913428466796875,-0.9247589111328125,-0.2869110107421875,-0.507965087890625
1774158160673421300,0.93342138671875,-0.9061279296875,-0.27880859375,-0.4870452880859375
1774158160693414400,0.953414306640625,-0.837860107421875,-0.2867889404296875,-0.4601898193359375
1774158160713406500,0.973406494140625,-0.7801055908203125,-0.3246917724609375,-0.422821044921875
1774158160733399300,0.9933994140625,-0.7564544677734375,-0.3726654052734375,-0.3997344970703125
1774158160753392400,1.013392333984375,-0.7698516845703125,-0.387481689453125,-0.3997802734375
1774158160773384400,1.033384521484375,-0.8304595947265625,-0.3495330810546875,-0.3967742919921875
1774158160793377300,1.053377197265625,-0.8681640625,-0.3175048828125,-0.3702850341796875
1774158160813370400,1.073370361328125,-0.8737335205078125,-0.3042755126953125,-0.363922119140625
1774158160833362400,1.093362548828125,-0.8851776123046875,-0.3660736083984375,-0.3672332763671875
1774158160853356000,1.11335595703125,-0.9066314697265625,-0.3941192626953125,-0.36474609375
1774158160873348000,1.13334814453125,-0.9144744873046875,-0.3288726806640625,-0.355010986328125
1774158160893341200,1.153341064453125,-0.899505615234375,-0.2824859619140625,-0.350433349609375
1774158160913334000,1.173333984375,-0.87811279296875,-0.2703399658203125,-0.354278564453125
1774158160933326000,1.193326171875,-0.8705902099609375,-0.2911529541015625,-0.3910064697265625
1774158160953319200,1.213319091796875,-0.877227783203125,-0.320556640625,-0.4179229736328125
1774158160973312300,1.233312255859375,-0.883941650390625,-0.3336944580078125,-0.4343109130859375
1774158160993304000,1.253303955078125,-0.8625030517578125,-0.3297882080078125,-0.454010009765625
1774158161013297200,1.273297119140625,-0.8280792236328125,-0.3466949462890625,-0.4469146728515625
1774158161033289000,1.2932890625,-0.8094329833984375,-0.362396240234375,-0.430755615234375
1774158161053282000,1.313281982421875,-0.8178558349609375,-0.3567047119140625,-0.4244232177734375
1774158161073275100,1.333275146484375,-0.88018798828125,-0.33251953125,-0.4215850830078125
1774158161093267000,1.353266845703125,-0.9250640869140625,-0.2917022705078125,-0.405181884765625
1774158161113260000,1.373260009765625,-0.8961639404296875,-0.2377166748046875,-0.3703460693359375
1774158161133253000,1.393253173828125,-0.8604888916015625,-0.2610321044921875,-0.347412109375
1774158161153245000,1.413244873046875,-0.832916259765625,-0.302001953125,-0.3352203369140625
1774158161173238000,1.433238037109375,-0.8264923095703125,-0.30712890625,-0.3250732421875
1774158161193230000,1.45322998046875,-0.834259033203125,-0.316314697265625,-0.31072998046875
1774158161213223000,1.473222900390625,-0.8513641357421875,-0.3314361572265625,-0.3095550537109375
1774158161233216000,1.493216064453125,-0.887664794921875,-0.3597564697265625,-0.3035736083984375
1774158161253208000,1.5132080078125,-0.901824951171875,-0.35205078125,-0.2744598388671875
1774158161273201000,1.533200927734375,-0.881988525390625,-0.326324462890625,-0.248779296875
1774158161293194000,1.553194091796875,-0.870574951171875,-0.31939697265625,-0.2489471435546875
1774158161313186000,1.57318603515625,-0.9095458984375,-0.3395843505859375,-0.284912109375
1774158161333179000,1.593178955078125,-0.934722900390625,-0.3541717529296875,-0.3191375732421875
1774158161353172000,1.613171875,-0.9073638916015625,-0.372955322265625,-0.328033447265625
1774158161373164300,1.633164306640625,-0.8421478271484375,-0.370849609375,-0.3406829833984375
1774158161393157000,1.6531572265625,-0.820404052734375,-0.39874267578125,-0.356536865234375
1774158161413149200,1.673149169921875,-0.845733642578125,-0.3924102783203125,-0.3871307373046875
1774158161433142300,1.693142333984375,-0.8672027587890625,-0.3896026611328125,-0.40118408203125
1774158161453135000,1.713135009765625,-0.8548431396484375,-0.3838653564453125,-0.39642333984375
1774158161473127200,1.733127197265625,-0.8499603271484375,-0.3663787841796875,-0.3887786865234375
1774158161493120000,1.7531201171875,-0.8321075439453125,-0.36468505859375,-0.380218505859375
1774158161513113000,1.773113037109375,-0.8395233154296875,-0.348052978515625,-0.3815765380859375
1774158161533105200,1.793105224609375,-0.87493896484375,-0.34527587890625,-0.3773956298828125
1774158161553098000,1.813097900390625,-0.89703369140625,-0.3128204345703125,-0.3713531494140625
1774158161573090000,1.833090087890625,-0.89642333984375,-0.2423095703125,-0.38140869140625
1774158161593083100,1.853083251953125,-0.91064453125,-0.1904296875,-0.4118499755859375
1774158161613076000,1.873075927734375,-0.9259490966796875,-0.1805267333984375,-0.4341583251953125
1774158161633068000,1.893068115234375,-0.9108428955078125,-0.163421630859375,-0.447235107421875
1774158161653061000,1.91306103515625,-0.8152923583984375,-0.18280029296875,-0.4704742431640625
1774158161673054000,1.933053955078125,-0.752838134765625,-0.2811431884765625,-0.4747467041015625
1774158161693046000,1.9530458984375,-0.7458038330078125,-0.3436279296875,-0.4867095947265625
1774158161713039000,1.9730390625,-0.7693328857421875,-0.391845703125,-0.4763031005859375
1774158161733031000,1.993031005859375,-0.78265380859375,-0.4023284912109375,-0.4522705078125
1774158161753024000,2.01302392578125,-0.829193115234375,-0.3838653564453125,-0.440155029296875
1774158161773017000,2.03301708984375,-0.8853302001953125,-0.3788909912109375,-0.4152069091796875
1774158161793009200,2.053009033203125,-0.9291534423828125,-0.3598175048828125,-0.38128662109375
1774158161813002000,2.073001953125,-0.9280853271484375,-0.3209991455078125,-0.3395538330078125
1774158161832995000,2.0929951171875,-0.9115447998046875,-0.31158447265625,-0.3075408935546875
1774158161852986600,2.112986572265625,-0.8991546630859375,-0.3260650634765625,-0.2900848388671875
1774158161872979700,2.132979736328125,-0.9025115966796875,-0.3369293212890625,-0.3009185791015625
1774158161892971800,2.1529716796875,-0.9500732421875,-0.327545166015625,-0.33648681640625
1774158161912964600,2.172964599609375,-0.9900054931640625,-0.2512969970703125,-0.3520965576171875
1774158161932957700,2.192957763671875,-0.9597015380859375,-0.146392822265625,-0.3470916748046875
1774158161952949800,2.21294970703125,-0.9256591796875,-0.122589111328125,-0.3505706787109375
1774158161972942600,2.232942626953125,-0.89251708984375,-0.1909942626953125,-0.380279541015625
1774158161992935700,2.252935791015625,-0.8206329345703125,-0.2746429443359375,-0.399658203125
1774158162012927700,2.272927734375,-0.7913970947265625,-0.340667724609375,-0.4299163818359375
1774158162032920600,2.292920654296875,-0.8440399169921875,-0.39715576171875,-0.456268310546875
1774158162052912600,2.31291259765625,-0.8944854736328125,-0.4196929931640625,-0.46185302734375
1774158162072905500,2.332905517578125,-0.9031829833984375,-0.4039459228515625,-0.448516845703125
1774158162092898600,2.352898681640625,-0.87030029296875,-0.3791046142578125,-0.413909912109375
1774158162112890600,2.372890625,-0.8714141845703125,-0.345977783203125,-0.3993377685546875
1774158162132883500,2.392883544921875,-0.892669677734375,-0.3154296875,-0.380889892578125
1774158162152876500,2.41287646484375,-0.900726318359375,-0.3074798583984375,-0.3711700439453125
1774158162172868600,2.43286865234375,-0.907623291015625,-0.281646728515625,-0.3798065185546875
1774158162192861400,2.452861328125,-0.89019775390625,-0.2855987548828125,-0.390960693359375
1774158162212854500,2.4728544921875,-0.8831024169921875,-0.2919464111328125,-0.419158935546875
1774158162232846800,2.492846923828125,-0.8798675537109375,-0.2921295166015625,-0.452362060546875
1774158162252839700,2.512839599609375,-0.892578125,-0.29669189453125,-0.472869873046875
1774158162272831700,2.532831787109375,-0.8946075439453125,-0.265625,-0.49688720703125
1774158162292824800,2.552824951171875,-0.8620147705078125,-0.25238037109375,-0.524749755859375
1774158162312817700,2.572817626953125,-0.7860870361328125,-0.29119873046875,-0.5188751220703125
1774158162332809700,2.592809814453125,-0.7281951904296875,-0.3399200439453125,-0.4694671630859375
1774158162352802800,2.612802734375,-0.7402191162109375,-0.3430023193359375,-0.4528656005859375
1774158162372795600,2.632795654296875,-0.7530364990234375,-0.301849365234375,-0.473968505859375
1774158162392787700,2.65278759765625,-0.78057861328125,-0.28826904296875,-0.4801177978515625
1774158162412780800,2.67278076171875,-0.7514495849609375,-0.231048583984375,-0.47308349609375
1774158162432772600,2.692772705078125,-0.77301025390625,-0.130859375,-0.48681640625
1774158162452765700,2.712765625,-0.8101348876953125,-0.13885498046875,-0.5775604248046875
1774158162472758800,2.7327587890625,-0.86431884765625,-0.1912841796875,-0.5570831298828125
1774158162492750600,2.75275048828125,-0.85968017578125,-0.175689697265625,-0.56671142578125
1774158162512743700,2.77274365234375,-0.7780303955078125,-0.108978271484375,-0.6044158935546875
1774158162532736500,2.792736572265625,-0.6446533203125,-0.11395263671875,-0.57928466796875
1774158162552728600,2.812728515625,-0.615325927734375,-0.1698150634765625,-0.563751220703125
1774158162572721700,2.8327216796875,-0.6692352294921875,-0.20147705078125,-0.58837890625
1774158162592713500,2.85271337890625,-0.7390594482421875,-0.1912994384765625,-0.6392059326171875
1774158162612706600,2.87270654296875,-0.78460693359375,-0.2214508056640625,-0.62896728515625
1774158162632699600,2.89269970703125,-0.833984375,-0.205413818359375,-0.602630615234375
1774158162652691700,2.912691650390625,-0.79547119140625,-0.1774444580078125,-0.571929931640625
1774158162672684500,2.9326845703125,-0.78564453125,-0.176666259765625,-0.5062103271484375
1774158162692677600,2.952677734375,-0.7872467041015625,-0.179718017578125,-0.4683074951171875
1774158162712669700,2.972669677734375,-0.814300537109375,-0.1641387939453125,-0.43304443359375
1774158162732662800,2.992662841796875,-0.8640594482421875,-0.1177215576171875,-0.43096923828125
1774158162752654600,3.012654541015625,-0.9131011962890625,-0.0856475830078125,-0.44793701171875
1774158162772647700,3.032647705078125,-0.8920440673828125,-0.0928955078125,-0.464813232421875
1774158162792640800,3.052640869140625,-0.8840484619140625,-0.13909912109375,-0.44134521484375
1774158162812632600,3.072632568359375,-0.9300689697265625,-0.110748291015625,-0.459930419921875
1774158162832625700,3.092625732421875,-0.950958251953125,-0.10546875,-0.46630859375
1774158162852618800,3.11261865234375,-0.9196319580078125,-0.08245849609375,-0.465179443359375
1774158162872610600,3.132610595703125,-0.88824462890625,-0.088470458984375,-0.4299468994140625
1774158162892603600,3.152603759765625,-0.889404296875,-0.1204681396484375,-0.4287261962890625
1774158162912595700,3.172595703125,-0.871429443359375,-0.1220550537109375,-0.4338836669921875
1774158162932588500,3.192588623046875,-0.8596343994140625,-0.1224365234375,-0.39898681640625
1774158162952581600,3.21258154296875,-0.88677978515625,-0.110565185546875,-0.3834991455078125
1774158162972573700,3.23257373046875,-0.9336090087890625,-0.070037841796875,-0.3706817626953125
1774158162992566500,3.25256640625,-0.9493865966796875,-0.0150299072265625,-0.3529205322265625
1774158163012559600,3.2725595703125,-0.9979705810546875,0.01263427734375,-0.3610076904296875
1774158163032551700,3.2925517578125,-1.02545166015625,-0.0514678955078125,-0.3725433349609375
1774158163052544500,3.31254443359375,-0.918487548828125,-0.066802978515625,-0.3029327392578125
1774158163072536800,3.332536865234375,-0.86785888671875,-0.03656005859375,-0.234649658203125
1774158163092529400,3.352529296875,-0.92083740234375,0.002166748046875,-0.2667999267578125
1774158163112522500,3.3725224609375,-0.9220123291015625,-0.0942840576171875,-0.304931640625
1774158163132514800,3.392514892578125,-0.9015045166015625,-0.1809844970703125,-0.3166961669921875
1774158163152507600,3.412507568359375,-0.951385498046875,-0.1929473876953125,-0.34326171875
1774158163172500700,3.432500732421875,-0.9652099609375,-0.1389312744140625,-0.3635711669921875
1774158163192492800,3.452492919921875,-0.929229736328125,-0.09625244140625,-0.34698486328125
1774158163212485600,3.472485595703125,-0.9295501708984375,-0.153076171875,-0.303558349609375
1774158163232477700,3.492477783203125,-0.92706298828125,-0.215667724609375,-0.3265838623046875
1774158163252470800,3.512470703125,-0.8600006103515625,-0.146514892578125,-0.3129730224609375
1774158163272463600,3.532463623046875,-0.8292388916015625,-0.1575775146484375,-0.3186798095703125
1774158163292455700,3.55245556640625,-0.931884765625,-0.142669677734375,-0.340576171875
1774158163312448800,3.57244873046875,-1.033355712890625,-0.07781982421875,-0.357086181640625
1774158163332441600,3.592441650390625,-1.065032958984375,0.014892578125,-0.334014892578125
1774158163352433700,3.61243359375,-0.9868316650390625,-0.020477294921875,-0.291168212890625
1774158163372426800,3.6324267578125,-0.9310760498046875,-0.1146087646484375,-0.3087005615234375
1774158163392418600,3.65241845703125,-0.962799072265625,-0.112884521484375,-0.3279876708984375
1774158163412411600,3.67241162109375,-0.9674224853515625,-0.1056365966796875,-0.314422607421875
1774158163432404700,3.69240478515625,-0.985076904296875,-0.0597381591796875,-0.32354736328125
1774158163452396500,3.712396484375,-1.0019683837890625,0.0571136474609375,-0.40673828125
1774158163472389600,3.7323896484375,-1.0523681640625,-0.0594940185546875,-0.3904571533203125
1774158163492381700,3.752381591796875,-0.960540771484375,-0.1778411865234375,-0.3340301513671875
1774158163512374500,3.77237451171875,-0.8632049560546875,-0.177764892578125,-0.25689697265625
1774158163532367600,3.79236767578125,-0.96514892578125,-0.1381683349609375,-0.0208740234375
1774158163552359700,3.812359619140625,-0.9398956298828125,-0.086395263671875,-0.2101593017578125
1774158163572352800,3.832352783203125,-0.98345947265625,-0.125030517578125,-0.333648681640625
1774158163592345600,3.852345703125,-0.9803466796875,-0.1878662109375,-0.30804443359375
1774158163612337700,3.872337646484375,-0.7879180908203125,-0.07623291015625,-0.259246826171875
1774158163632330800,3.892330810546875,-0.8690032958984375,-0.083831787109375,-0.276336669921875
1774158163652322800,3.91232275390625,-1.082275390625,-0.119873046875,-0.3473052978515625
1774158163672315600,3.932315673828125,-0.9559783935546875,-0.15716552734375,-0.370513916015625
1774158163692308700,3.952308837890625,-0.778564453125,-0.1476593017578125,-0.3968353271484375
1774158163712300500,3.972300537109375,-0.843109130859375,-0.16656494140625,-0.4179534912109375
1774158163732293600,3.992293701171875,-0.9579925537109375,-0.1201629638671875,-0.491790771484375
1774158163752286700,4.01228662109375,-0.9711761474609375,-0.1428680419921875,-0.4594573974609375
1774158163772278500,4.032278564453125,-1.0038604736328125,-0.2669830322265625,-0.50634765625
1774158163792271600,4.052271728515625,-0.80047607421875,-0.2758026123046875,-0.5590972900390625
1774158163812263700,4.072263671875,-0.73699951171875,-0.212005615234375,-0.5280303955078125
1774158163832256500,4.092256591796875,-0.81207275390625,-0.1692962646484375,-0.560333251953125
1774158163852249600,4.11224951171875,-0.8058624267578125,-0.20050048828125,-0.6027984619140625
1774158163872241400,4.132241455078125,-0.6977691650390625,-0.2796478271484375,-0.6445159912109375
1774158163892234500,4.152234375,-0.7375946044921875,-0.2481842041015625,-0.6739501953125
1774158163912227600,4.1722275390625,-0.7411956787109375,-0.216522216796875,-0.690460205078125
1774158163932219400,4.192219482421875,-0.6367645263671875,-0.228851318359375,-0.70196533203125
1774158163952212500,4.21221240234375,-0.569061279296875,-0.2084503173828125,-0.677764892578125
1774158163972204500,4.23220458984375,-0.4528961181640625,-0.2042694091796875,-0.6501007080078125
1774158163992197600,4.25219775390625,-0.558563232421875,-0.3352203369140625,-0.7873077392578125
1774158164012190500,4.2721904296875,-0.6229248046875,-0.4560394287109375,-0.907806396484375
1774158164032182500,4.2921826171875,-0.673095703125,-0.348846435546875,-0.92962646484375
1774158164052175600,4.312175537109375,-0.624420166015625,-0.26153564453125,-0.8616790771484375
1774158164072167700,4.332167724609375,-0.5570831298828125,-0.2865142822265625,-0.8373565673828125
1774158164092160500,4.352160400390625,-0.4460601806640625,-0.281036376953125,-0.8201751708984375
1774158164112153600,4.372153564453125,-0.5228729248046875,-0.1365814208984375,-0.737091064453125
1774158164132145700,4.392145751953125,-0.6546783447265625,-0.0418548583984375,-0.7711029052734375
1774158164152138500,4.412138427734375,-0.629058837890625,-0.08074951171875,-0.77099609375
1774158164172131600,4.432131591796875,-0.4461212158203125,-0.09619140625,-0.7384033203125
1774158164192123400,4.452123291015625,-0.3767242431640625,-0.0469207763671875,-0.743072509765625
1774158164212116500,4.472116455078125,-0.3778839111328125,0.1180877685546875,-0.79302978515625
1774158164232108500,4.492108642578125,-0.214141845703125,0.019073486328125,-0.865631103515625
1774158164252101400,4.512101318359375,-0.0568389892578125,0.049072265625,-0.908111572265625
1774158164272094500,4.532094482421875,0.1255340576171875,0.181488037109375,-0.9911956787109375
1774158164292086500,4.55208642578125,0.0525360107421875,0.2881011962890625,-0.9802093505859375
1774158164312079400,4.572079345703125,-0.0870819091796875,0.537811279296875,-0.9937591552734375
1774158164332071400,4.592071533203125,-0.179901123046875,1.041595458984375,-0.9090423583984375
1774158164352064500,4.612064453125,-0.43182373046875,0.4890899658203125,-0.9605560302734375
1774158164372057300,4.632057373046875,-0.4203948974609375,0.330841064453125,-1.011322021484375
1774158164392049700,4.652049560546875,-0.449249267578125,0.3200836181640625,-1.0342254638671875
1774158164412042500,4.67204248046875,-0.0418548583984375,0.3816375732421875,-1.02288818359375
1774158164432035300,4.692035400390625,0.0784149169921875,0.39080810546875,-0.9737548828125
1774158164452027600,4.712027587890625,-0.0272064208984375,0.5812530517578125,-0.93035888671875
1774158164472020700,4.732020751953125,-0.085723876953125,0.4596099853515625,-0.9933013916015625
1774158164492012500,4.752012451171875,-0.07696533203125,0.461151123046875,-0.97015380859375
1774158164512005600,4.772005615234375,-0.1658172607421875,0.412384033203125,-0.975982666015625
1774158164531998700,4.791998779296875,-0.3424224853515625,0.2310638427734375,-1.0894317626953125
1774158164551990500,4.811990478515625,-0.3474884033203125,0.2126007080078125,-1.1501007080078125
1774158164571983600,4.831983642578125,-0.631134033203125,0.0623779296875,-1.2435150146484375
1774158164591976700,4.851976806640625,-0.196044921875,0.469451904296875,-0.967803955078125
1774158164611968500,4.871968505859375,-0.282562255859375,0.3406524658203125,-0.6602935791015625
1774158164631961600,4.891961669921875,0.1056671142578125,0.2496337890625,-0.636962890625
1774158164651953400,4.911953369140625,0.371429443359375,0.31494140625,-0.491546630859375
1774158164671946500,4.931946533203125,0.1082763671875,0.308441162109375,-0.601959228515625
1774158164691939600,4.951939697265625,-0.0025634765625,0.2386322021484375,-0.6546478271484375
1774158164711931400,4.971931396484375,0.12841796875,0.3487548828125,-0.5725250244140625
1774158164731924500,4.991924560546875,0.22796630859375,0.5025634765625,-0.4995269775390625
1774158164751916500,5.01191650390625,0.2525482177734375,0.591796875,-0.4810791015625
1774158164771909400,5.031909423828125,0.246612548828125,0.6044769287109375,-0.554412841796875
1774158164791902500,5.05190234375,0.0619354248046875,0.6924285888671875,-0.7706298828125
1774158164811894500,5.07189453125,-0.1082916259765625,0.67333984375,-0.77978515625
1774158164831887400,5.091887451171875,-0.127716064453125,0.54437255859375,-1.1873779296875
1774158164851880700,5.111880615234375,-0.161590576171875,0.5466766357421875,-1.6847991943359375
1774158164871873000,5.131873046875,-0.11572265625,0.8134765625,-1.29547119140625
1774158164891865900,5.151865966796875,0.1354217529296875,0.8383941650390625,-0.8823699951171875
1774158164911858000,5.17185791015625,0.0671539306640625,0.88653564453125,-0.8131256103515625
1774158164931851000,5.19185107421875,0.1155242919921875,0.748992919921875,-0.732421875
1774158164951843800,5.21184375,0.0243988037109375,0.6555938720703125,-0.6931610107421875
1774158164971836000,5.2318359375,-0.2444000244140625,0.509765625,-0.7968597412109375
1774158164991829000,5.2518291015625,-0.2559967041015625,0.6222076416015625,-0.87799072265625
1774158165011820800,5.27182080078125,0.1670074462890625,0.733795166015625,-0.8957366943359375
1774158165031814000,5.29181396484375,0.47113037109375,0.7908935546875,-0.563385009765625
1774158165051807000,5.311806884765625,0.3409423828125,0.6375579833984375,-0.4659576416015625
1774158165071798800,5.331798828125,0.07098388671875,0.6540374755859375,-0.553131103515625
1774158165091792000,5.3517919921875,-0.0180206298828125,0.7449798583984375,-0.76507568359375
1774158165111785000,5.371784912109375,0.1046905517578125,0.8256072998046875,-0.7435760498046875
1774158165131776800,5.39177685546875,0.169158935546875,0.79327392578125,-0.5633392333984375
1774158165151769900,5.411769775390625,0.1692352294921875,0.6368408203125,-0.591827392578125
1774158165171761700,5.43176171875,0.145477294921875,0.6344757080078125,-0.5457611083984375
1774158165191754800,5.451754638671875,0.02374267578125,0.3764495849609375,-0.3347320556640625
1774158165211747800,5.471747802734375,0.1308441162109375,0.6832275390625,-0.5208282470703125
1774158165231739600,5.49173974609375,-0.1776123046875,0.9532318115234375,-0.8199462890625
1774158165251732700,5.511732666015625,-0.18212890625,0.869110107421875,-0.711822509765625
1774158165271725800,5.531725830078125,0.210357666015625,0.9161224365234375,-0.5155487060546875
1774158165291718000,5.5517177734375,0.422149658203125,1.08807373046875,-0.5931549072265625
1774158165311710700,5.571710693359375,0.772918701171875,0.93109130859375,-0.545562744140625
1774158165331702800,5.591702880859375,0.209381103515625,0.85693359375,-0.737548828125
1774158165351696000,5.61169580078125,-0.324676513671875,0.83831787109375,-0.7689208984375
1774158165371689000,5.63168896484375,-0.100311279296875,0.599517822265625,-0.666595458984375
1774158165391680800,5.6516806640625,-0.0208587646484375,0.558624267578125,-0.7012176513671875
1774158165411673900,5.671673828125,0.0032958984375,0.59228515625,-0.7381744384765625
1774158165431666000,5.691666015625,0.1811370849609375,0.662933349609375,-0.581268310546875
1774158165451658800,5.71165869140625,0.1998291015625,0.6893157958984375,-0.4750823974609375
1774158165471651800,5.73165185546875,0.2545013427734375,0.89935302734375,-0.6576080322265625
1774158165491644000,5.751643798828125,0.2635040283203125,0.9067535400390625,-0.7251434326171875
1774158165511636700,5.77163671875,0.1833343505859375,0.960784912109375,-0.5611114501953125
1774158165531628800,5.79162890625,0.0914154052734375,0.974639892578125,-0.44854736328125
1774158165551622000,5.811621826171875,-0.1392974853515625,0.8948211669921875,-0.44940185546875
1774158165571614700,5.83161474609375,0.0191650390625,0.773681640625,-0.6166839599609375
1774158165591606800,5.851606689453125,0.0989990234375,0.8583526611328125,-0.5813751220703125
1774158165611600000,5.871599853515625,0.129302978515625,0.8109893798828125,-0.5506744384765625
1774158165631591700,5.891591796875,0.1313629150390625,0.815643310546875,-0.5632476806640625
1774158165651584800,5.911584716796875,0.2579345703125,0.655792236328125,-0.7835845947265625
1774158165671577900,5.931577880859375,0.061614990234375,0.7671051025390625,-0.813751220703125
1774158165691570000,5.95156982421875,0.0531158447265625,0.9040985107421875,-0.5814056396484375
1774158165711562800,5.971562744140625,-0.0274200439453125,0.74432373046875,-0.637908935546875
1774158165731554800,5.991554931640625,-0.1832733154296875,0.7352294921875,-0.9011077880859375
1774158165751548000,6.0115478515625,0.397705078125,0.5255889892578125,-0.768218994140625
1774158165771541000,6.031541015625,0.327850341796875,0.532379150390625,-0.6689453125
1774158165791532800,6.05153271484375,-0.03070068359375,0.6261749267578125,-0.7853546142578125
1774158165811526000,6.07152587890625,-0.0024871826171875,0.6461334228515625,-0.6609344482421875
1774158165831518000,6.09151806640625,0.0503692626953125,0.721435546875,-0.551727294921875
1774158165851510800,6.1115107421875,-0.0032196044921875,0.68792724609375,-0.5578155517578125
1774158165871504000,6.13150390625,0.0463409423828125,1.0525360107421875,-0.6678009033203125
1774158165891495700,6.15149560546875,0.080810546875,0.903900146484375,-0.63250732421875
1774158165911488800,6.17148876953125,0.02069091796875,0.9567718505859375,-0.71185302734375
1774158165931480800,6.191480712890625,0.07373046875,0.98956298828125,-0.660308837890625
1774158165951473700,6.2114736328125,-0.058258056640625,0.8876953125,-0.54205322265625
1774158165971466800,6.231466796875,-0.2794342041015625,0.698699951171875,-0.568756103515625
1774158165991458800,6.251458740234375,-0.028656005859375,0.7604522705078125,-0.50164794921875
1774158166011451600,6.27145166015625,-0.0482940673828125,0.5117034912109375,-0.6467742919921875
1774158166031443700,6.291443603515625,-0.0246429443359375,0.4341278076171875,-0.70745849609375
1774158166051436500,6.3114365234375,-0.1197052001953125,0.6335906982421875,-0.57080078125
1774158166071429600,6.3314296875,-0.2332305908203125,1.1992034912109375,-0.9484710693359375
1774158166091422000,6.351421875,-0.120849609375,0.9045867919921875,-0.5747222900390625
1774158166111414800,6.371414794921875,0.166290283203125,0.708984375,-0.4679107666015625
1774158166131406800,6.39140673828125,-0.0955657958984375,0.3039398193359375,-0.509368896484375
1774158166151400000,6.41139990234375,0.2716064453125,0.4733428955078125,0.09234619140625
1774158166171391700,6.431391845703125,0.5264892578125,0.31817626953125,0.305145263671875
1774158166191384800,6.451384765625,0.004119873046875,0.4944305419921875,0.1558685302734375
1774158166211378000,6.4713779296875,-0.2402801513671875,0.9644012451171875,-0.1338043212890625
1774158166231369700,6.49136962890625,-0.29510498046875,1.1671295166015625,-0.2868194580078125
1774158166251362800,6.51136279296875,-0.30950927734375,1.1743927001953125,-0.4119720458984375
1774158166271354600,6.531354736328125,0.004302978515625,1.027740478515625,-0.6062164306640625
1774158166291347700,6.55134765625,-0.101837158203125,1.04595947265625,-0.7003631591796875
1774158166311340800,6.5713408203125,-0.4017791748046875,1.3822174072265625,-0.6352996826171875
1774158166331332600,6.59133251953125,-0.0550384521484375,1.2679290771484375,-0.2384490966796875
1774158166351325700,6.61132568359375,0.1587066650390625,1.2789764404296875,-0.1750335693359375
1774158166371317800,6.63131787109375,0.122955322265625,1.1612396240234375,-0.1139373779296875
1774158166391310600,6.651310546875,-0.239044189453125,1.0077972412109375,-0.1126556396484375
1774158166411303700,6.6713037109375,-0.188873291015625,0.8797607421875,-0.0084381103515625
1774158166431295700,6.691295654296875,0.0598602294921875,0.9540252685546875,-0.0318603515625
1774158166451288600,6.71128857421875,0.1391754150390625,1.0841064453125,-0.0770416259765625
1774158166471281000,6.731281005859375,0.04632568359375,1.01336669921875,-0.0835418701171875
1774158166491274000,6.75127392578125,-0.3021240234375,0.90106201171875,-0.103607177734375
1774158166511265800,6.771265869140625,-0.334625244140625,0.96307373046875,-0.2576751708984375
1774158166531259000,6.7912587890625,-0.3373260498046875,0.9287872314453125,-0.285797119140625
1774158166551252000,6.811251953125,-0.011871337890625,0.9142913818359375,-0.1929473876953125
1774158166571243800,6.831243896484375,0.037750244140625,0.85174560546875,-0.040496826171875
1774158166591236900,6.85123681640625,0.093109130859375,1.02593994140625,-0.02850341796875
1774158166611228700,6.871228759765625,-0.0545196533203125,1.130218505859375,-0.0788116455078125
1774158166631221800,6.8912216796875,-0.0675201416015625,1.018341064453125,-0.0621795654296875
1774158166651213800,6.9112138671875,-0.1131744384765625,0.960693359375,-0.1513671875
1774158166671206700,6.93120654296875,-0.065185546875,0.8611297607421875,-0.1155853271484375
1774158166691199700,6.95119970703125,0.0841827392578125,0.8706817626953125,-0.0868377685546875
1774158166711191800,6.97119189453125,0.2178802490234375,1.007720947265625,0.0342864990234375
1774158166731184600,6.9911845703125,0.377838134765625,1.3437347412109375,-0.0345001220703125
1774158166751177000,7.011177001953125,-0.004364013671875,1.20611572265625,-0.039398193359375
1774158166771169500,7.03116943359375,-0.279449462890625,0.9472503662109375,-0.127716064453125
1774158166791161900,7.051161865234375,0.1794586181640625,0.9133148193359375,-0.246368408203125
1774158166811155000,7.071155029296875,0.3361053466796875,1.0587005615234375,-0.1914215087890625
1774158166831147800,7.091147705078125,0.1363067626953125,0.983306884765625,-0.164825439453125
1774158166851139800,7.111139892578125,-0.0110931396484375,0.9947509765625,-0.106201171875
1774158166871132400,7.13113232421875,-0.1351318359375,0.96295166015625,-0.023529052734375
1774158166891124200,7.151124267578125,-0.0400848388671875,0.8722991943359375,0.0112152099609375
1774158166911117300,7.171117431640625,-0.047882080078125,0.97601318359375,-0.0133056640625
1774158166931109400,7.191109375,-0.05615234375,1.01727294921875,-0.049957275390625
1774158166951102200,7.211102294921875,-0.0316619873046875,1.019134521484375,-0.054656982421875
1774158166971095300,7.23109521484375,-0.2341156005859375,0.9456787109375,-0.075439453125
1774158166991087400,7.25108740234375,-0.206085205078125,0.98486328125,-0.1429595947265625
1774158167011080200,7.271080078125,0.5533599853515625,1.0990142822265625,-0.24188232421875
1774158167031072300,7.291072265625,-0.0341339111328125,1.0825042724609375,-0.2362213134765625
1774158167051065000,7.311065185546875,-0.1124725341796875,0.894500732421875,-0.115692138671875
1774158167071058200,7.33105810546875,0.0325164794921875,1.0411834716796875,-0.183990478515625
1774158167091050500,7.351050537109375,-0.03936767578125,1.1134796142578125,-0.2552032470703125
1774158167111043300,7.371043212890625,-0.1968841552734375,1.01373291015625,-0.1684722900390625
1774158167131035400,7.391035400390625,0.0995025634765625,1.0583648681640625,-0.1372528076171875
1774158167151028500,7.411028564453125,0.0506591796875,0.9977569580078125,-0.1313323974609375
1774158167171020300,7.431020263671875,-0.073394775390625,1.011749267578125,-0.2640380859375
1774158167191013400,7.451013427734375,-0.038787841796875,0.95623779296875,-0.1845855712890625
1774158167211006500,7.47100634765625,-0.0074920654296875,0.9126129150390625,-0.1701202392578125
1774158167230998300,7.490998291015625,-0.058502197265625,1.067291259765625,-0.1334686279296875
1774158167250991400,7.510991455078125,-0.0655364990234375,0.9268035888671875,-0.1062774658203125
1774158167270983200,7.530983154296875,-0.0467529296875,0.8303375244140625,-0.0349884033203125
1774158167290976300,7.550976318359375,-0.1292724609375,0.8553009033203125,-0.1224212646484375
1774158167310968300,7.57096826171875,-0.006988525390625,0.9192657470703125,-0.106201171875
1774158167330961200,7.590961181640625,-0.010833740234375,0.8820953369140625,-0.07720947265625
1774158167350953200,7.610953125,-0.06317138671875,1.0045166015625,-0.11151123046875
1774158167370946300,7.6309462890625,-0.13836669921875,1.007568359375,-0.19915771484375
1774158167390939100,7.650939208984375,-0.2581024169921875,0.9290008544921875,-0.26788330078125
1774158167410931500,7.670931396484375,-0.0843505859375,0.9035491943359375,-0.0879058837890625
1774158167430924300,7.69092431640625,-0.0156707763671875,1.1342926025390625,-0.036376953125
1774158167450916400,7.710916259765625,-0.2433319091796875,1.0955047607421875,0.005645751953125
1774158167470909400,7.730909423828125,-0.4155426025390625,1.1005859375,0.024871826171875
1774158167490901200,7.7509013671875,-0.3009490966796875,1.0113067626953125,-0.1417083740234375
1774158167510894300,7.770894287109375,-0.2353057861328125,1.1004486083984375,-0.1715850830078125
1774158167530887400,7.790887451171875,-0.457305908203125,1.0421905517578125,-0.2812652587890625
1774158167550879200,7.810879150390625,-0.3806610107421875,0.7773590087890625,-0.2747802734375
1774158167570872300,7.830872314453125,0.1124114990234375,0.7066802978515625,-0.2714080810546875
1774158167590864400,7.850864501953125,-0.0356292724609375,0.9978485107421875,-0.130096435546875
1774158167610857200,7.870857177734375,-0.1117095947265625,1.1331939697265625,-0.1002044677734375
1774158167630849300,7.890849365234375,-0.0831451416015625,0.940399169921875,-0.277069091796875
1774158167650842400,7.91084228515625,-0.39581298828125,0.6728057861328125,-0.3304290771484375
1774158167670835200,7.930835205078125,-0.286163330078125,0.6202545166015625,-0.44390869140625
1774158167690827300,7.9508271484375,-0.220428466796875,0.684661865234375,-0.4351348876953125
1774158167710820400,7.9708203125,-0.235260009765625,0.8591156005859375,-0.1335601806640625
1774158167730812400,7.9908125,-0.21630859375,1.284515380859375,0.00689697265625
1774158167750805500,8.010805419921875,0.001678466796875,1.278717041015625,-0.114959716796875
1774158167770797300,8.03079736328125,0.2009735107421875,1.0686187744140625,-0.139739990234375
1774158167790790400,8.050790283203124,-0.0666351318359375,0.8639068603515625,-0.12823486328125
1774158167810783500,8.070783447265624,-0.271514892578125,0.7930908203125,-0.0576629638671875
1774158167830775300,8.090775390625,-0.0142364501953125,1.0286407470703125,-0.0581512451171875
1774158167850768400,8.110768310546876,0.000396728515625,1.397552490234375,0.027252197265625
1774158167870761500,8.130761474609375,0.011871337890625,0.81256103515625,0.0380859375
1774158167890754600,8.150754638671875,-0.3096923828125,0.923431396484375,-0.2828369140625
1774158167910746400,8.170746337890625,-0.27520751953125,1.01123046875,-0.1602630615234375
1774158167930739500,8.190739501953125,-0.4215545654296875,1.0622711181640625,-0.235687255859375
1774158167950731500,8.2107314453125,-0.3205718994140625,0.9966583251953125,-0.239410400390625
1774158167970724400,8.230724365234375,-0.15362548828125,1.1077728271484375,-0.216064453125
1774158167990717400,8.250717529296875,-0.41644287109375,0.8152618408203125,-0.2308502197265625
1774158168010709500,8.27070947265625,-0.349151611328125,0.652862548828125,-0.2113037109375
1774158168030702300,8.290702392578124,-0.6391754150390625,0.8554534912109375,-0.278839111328125
1774158168050694400,8.3106943359375,-0.529815673828125,0.943603515625,-0.1713714599609375
1774158168070687500,8.3306875,-0.4288330078125,0.9960174560546875,-0.07977294921875
1774158168090679300,8.35067919921875,-0.222076416015625,0.9970550537109375,-0.1380615234375
1774158168110672400,8.37067236328125,-0.1189117431640625,0.9665069580078125,-0.2027740478515625
1774158168130664400,8.39066455078125,-0.3281707763671875,0.99969482421875,-0.21771240234375
1774158168150657500,8.410657470703125,-0.3462066650390625,0.95068359375,-0.13153076171875
1774158168170650400,8.430650390625,-0.4948883056640625,1.0038909912109375,-0.1309967041015625
1774158168190642400,8.450642333984375,-0.4014739990234375,0.948516845703125,-0.192779541015625
1774158168210635500,8.470635498046875,-0.45672607421875,0.854888916015625,-0.1997222900390625
1774158168230627600,8.490627685546874,-0.5240020751953125,0.87835693359375,-0.204376220703125
1774158168250620400,8.510620361328124,-0.5557403564453125,0.7799224853515625,-0.20928955078125
1774158168270612500,8.530612548828126,-0.63226318359375,0.7854156494140625,-0.194488525390625
1774158168290605600,8.55060546875,-0.2803192138671875,0.849609375,-0.116455078125
1774158168310597400,8.570597412109375,-0.2508087158203125,0.9561767578125,-0.1399078369140625
1774158168330590500,8.590590576171875,-0.3255615234375,0.8297576904296875,-0.1219024658203125
1774158168350583600,8.61058349609375,-0.216705322265625,0.8116302490234375,-0.1514434814453125
1774158168370575400,8.630575439453125,-0.2326507568359375,0.8511199951171875,-0.18438720703125
1774158168390568400,8.650568359375,-0.2631988525390625,0.9097442626953125,-0.2110748291015625
1774158168410560300,8.670560302734375,-0.4201202392578125,0.95758056640625,-0.25115966796875
1774158168430553300,8.69055322265625,-0.6016693115234375,1.04010009765625,-0.2761077880859375
1774158168450545700,8.710545654296874,-0.2513427734375,0.8834991455078125,-0.1703643798828125
1774158168470538500,8.73053857421875,-0.063262939453125,0.7913970947265625,-0.1435089111328125
1774158168490530600,8.750530517578126,-0.3135528564453125,0.8592529296875,-0.1494140625
1774158168510523600,8.770523681640626,-0.7844085693359375,1.0516815185546875,-0.3274078369140625
1774158168530516500,8.7905166015625,-0.390716552734375,0.7698822021484375,-0.27325439453125
1774158168550508500,8.810508544921875,-0.10369873046875,0.9140777587890625,-0.4157562255859375
1774158168570501400,8.83050146484375,-0.07537841796875,0.9056549072265625,-0.1500701904296875
1774158168590493400,8.850493408203125,-0.262359619140625,0.845184326171875,0.002655029296875
1774158168610486500,8.870486572265625,-0.106201171875,1.1151123046875,-0.3189849853515625
1774158168630478300,8.890478271484374,0.02423095703125,1.1723175048828125,-0.4868316650390625
1774158168650471400,8.910471435546874,-0.0693817138671875,0.952850341796875,-0.3312530517578125
1774158168670463500,8.93046337890625,-0.1403350830078125,0.87744140625,-0.2229156494140625
1774158168690456300,8.950456298828126,-0.220123291015625,0.9533538818359375,-0.085052490234375
1774158168710449400,8.970449462890626,-0.200469970703125,0.9124755859375,-0.04766845703125
1774158168730441200,8.990441162109375,-0.09320068359375,1.0696563720703125,-0.0854949951171875
1774158168750434300,9.010434326171875,-0.179931640625,0.901641845703125,-0.082000732421875
1774158168770426600,9.030426513671875,-0.0875244140625,0.85052490234375,-0.12420654296875
1774158168790419500,9.05041943359375,-0.113128662109375,1.1920013427734375,-0.1506805419921875
1774158168810411500,9.07041162109375,-0.1668701171875,1.094879150390625,-0.1194610595703125
1774158168830404600,9.090404541015625,-0.10455322265625,0.9172515869140625,-0.1186981201171875
1774158168850396400,9.110396484375,-0.0687103271484375,0.9113311767578125,-0.1026763916015625
1774158168870389000,9.130388916015624,-0.121063232421875,0.963226318359375,-0.1036224365234375
1774158168890381000,9.150381103515626,-0.1242523193359375,0.9657440185546875,-0.1190185546875
1774158168910374100,9.1703740234375,-0.15081787109375,1.0534210205078125,-0.12127685546875
1774158168930367000,9.190366943359376,-0.0648651123046875,1.2935943603515625,-0.0511016845703125
1774158168950359000,9.210359130859375,-0.135467529296875,1.30517578125,-0.1275634765625
1774158168970352000,9.23035205078125,-0.0465087890625,0.91009521484375,-0.12298583984375
1774158168990344000,9.250343994140625,0.2611236572265625,0.6465606689453125,-0.1086273193359375
1774158169010337000,9.2703369140625,-0.177703857421875,0.6767730712890625,-0.081024169921875
1774158169030329000,9.2903291015625,-0.0667877197265625,0.8604888916015625,-0.01055908203125
1774158169050322200,9.310322265625,-0.113800048828125,0.8302764892578125,-0.0766448974609375
1774158169070314200,9.330314208984374,-0.13262939453125,0.8118438720703125,-0.1145477294921875
1774158169090307000,9.35030712890625,-0.076629638671875,0.9183349609375,-0.137176513671875
1774158169110299100,9.370299072265626,-0.152130126953125,1.1110687255859375,-0.12615966796875
1774158169130292200,9.390292236328126,-0.191131591796875,1.08001708984375,-0.1190948486328125
1774158169150285000,9.41028515625,0.19061279296875,1.077178955078125,-0.1166534423828125
1774158169170277000,9.430277099609375,0.0643157958984375,1.0703277587890625,-0.1951751708984375
1774158169190270200,9.450270263671875,-0.06072998046875,0.9759521484375,-0.09259033203125
1774158169210262000,9.470261962890625,-0.1033172607421875,1.0653228759765625,-0.1847991943359375
1774158169230255000,9.490255126953125,0.0274200439453125,0.9984893798828125,-0.1663818359375
1774158169250247000,9.510246826171874,-0.044281005859375,0.99462890625,-0.157470703125
1774158169270240000,9.530239990234374,-0.0997467041015625,0.951934814453125,-0.118377685546875
1774158169290232000,9.550232177734374,-0.0597991943359375,0.9729766845703125,-0.1464996337890625
1774158169310225000,9.570224853515626,0.076385498046875,0.852020263671875,-0.1542816162109375
1774158169330217200,9.59021728515625,-0.032562255859375,0.9998931884765625,-0.212158203125
1774158169350210000,9.6102099609375,0.04351806640625,0.91705322265625,-0.1568603515625
1774158169370203100,9.630203125,0.09063720703125,0.9442596435546875,-0.139251708984375
1774158169390195200,9.6501953125,-0.148193359375,1.057769775390625,-0.213104248046875
1774158169410188000,9.67018798828125,0.030303955078125,0.966827392578125,-0.2740936279296875
1774158169430180000,9.69018017578125,-0.0599365234375,1.014923095703125,-0.3762054443359375
1774158169450173200,9.710173095703125,-0.120697021484375,1.0204315185546875,-0.180267333984375
1774158169470165000,9.7301650390625,0.034271240234375,1.0287322998046875,-0.0980987548828125
1774158169490158000,9.750157958984374,0.0591583251953125,0.998779296875,-0.1404876708984375
1774158169510150000,9.77014990234375,0.033935546875,0.958892822265625,-0.1655731201171875
1774158169530143000,9.79014306640625,-0.0671539306640625,0.90191650390625,-0.199676513671875
1774158169550135000,9.810135009765625,-0.0281524658203125,0.960693359375,-0.1786651611328125
1774158169570128000,9.8301279296875,-0.117156982421875,0.9485626220703125,-0.14776611328125
1774158169590120200,9.8501201171875,-0.0181884765625,1.021148681640625,-0.1493377685546875
1774158169610113000,9.870113037109375,-0.029144287109375,0.9918212890625,-0.166229248046875
1774158169630105900,9.89010595703125,-0.09912109375,0.9753570556640625,-0.18310546875
1774158169650098200,9.91009814453125,-0.0720977783203125,0.939483642578125,-0.2132720947265625
1774158169670091300,9.93009130859375,0.0164642333984375,0.97637939453125,-0.156463623046875
1774158169690083000,9.9500830078125,-0.0129852294921875,1.0215911865234375,-0.1575775146484375
1774158169710076200,9.970076171875,-0.0325164794921875,1.03277587890625,-0.1418304443359375
1774158169730068000,9.99006787109375,-0.020172119140625,0.9470672607421875,-0.120208740234375
1774158169750061000,10.01006103515625,-0.0351409912109375,0.973876953125,-0.079681396484375
1774158169770053000,10.03005322265625,-0.124969482421875,0.9005584716796875,-0.074066162109375
1774158169790046000,10.0500458984375,0.10614013671875,0.9522552490234375,-0.1357421875
1774158169810038000,10.0700380859375,0.033660888671875,0.9250030517578125,-0.178375244140625
1774158169830031000,10.090031005859375,-0.0712890625,0.9524688720703125,-0.2445068359375
1774158169850024000,10.11002392578125,-0.150665283203125,1.0658721923828125,-0.1931610107421875
1774158169870016000,10.13001611328125,-0.0151214599609375,1.0665740966796875,-0.0976409912109375
1774158169890009000,10.150009033203125,-0.192047119140625,0.95697021484375,-0.194366455078125
1774158169910001200,10.170001220703124,0.020538330078125,1.062469482421875,-0.2513275146484375
1774158169929994000,10.189993896484374,0.0019378662109375,0.967041015625,-0.0673980712890625
1774158169949986000,10.209986083984376,-0.0267486572265625,1.005706787109375,-0.085601806640625
1774158169969979100,10.229979248046876,-0.0463104248046875,1.0258331298828125,-0.095184326171875
1774158169989971200,10.24997119140625,0.02294921875,1.040252685546875,-0.1284332275390625
1774158170009964000,10.269964111328125,0.0463104248046875,0.908203125,-0.058929443359375
1774158170029956000,10.2899560546875,0.014068603515625,0.8897247314453125,-0.112274169921875
1774158170049949200,10.30994921875,0.0063629150390625,0.9790191650390625,-0.154266357421875
1774158170069941000,10.32994091796875,-0.044586181640625,0.9567413330078125,-0.136474609375
1774158170089934000,10.34993408203125,0.050384521484375,0.94757080078125,-0.17474365234375
1774158170109927200,10.36992724609375,-0.076568603515625,1.0023040771484375,-0.101593017578125
1774158170129919000,10.3899189453125,0.0809478759765625,0.899139404296875,-0.1778717041015625
1774158170149912000,10.409912109375,-0.0529632568359375,0.92596435546875,-0.1268463134765625
1774158170169903900,10.42990380859375,-0.0459136962890625,1.007904052734375,-0.072021484375
1774158170189897000,10.44989697265625,0.0201416015625,1.010223388671875,-0.1454315185546875
1774158170209889300,10.46988916015625,-0.0384979248046875,0.96075439453125,-0.2245330810546875
1774158170229882000,10.489882080078125,-0.09527587890625,0.986541748046875,-0.37237548828125
1774158170249874200,10.509874267578125,0.03033447265625,1.096893310546875,-0.1013336181640625
1774158170269867300,10.5298671875,0.0220794677734375,0.977447509765625,-0.0244140625
1774158170289859000,10.549859130859375,0.0233306884765625,0.925079345703125,-0.1914520263671875
1774158170309852200,10.56985205078125,0.0150604248046875,1.011993408203125,-0.218475341796875
1774158170329844000,10.589843994140624,-0.00732421875,0.985565185546875,-0.1560516357421875
1774158170349837000,10.609837158203124,0.040374755859375,1.002288818359375,-0.1649017333984375
1774158170369829000,10.6298291015625,-0.0443878173828125,0.9797821044921875,-0.1627197265625
1774158170389822000,10.649822021484376,-0.0069580078125,1.0799102783203125,-0.0565948486328125
1774158170409815000,10.66981494140625,0.0355072021484375,1.05377197265625,-0.1979217529296875
1774158170429807000,10.68980712890625,-0.003509521484375,0.984405517578125,-0.1908416748046875
1774158170449800000,10.709800048828125,-0.003143310546875,0.944122314453125,-0.134521484375
1774158170469792000,10.7297919921875,-0.010223388671875,0.8961181640625,-0.151153564453125
1774158170489784800,10.749784912109375,0.00543212890625,1.00006103515625,-0.182708740234375
1774158170509777200,10.769777099609374,-0.0282135009765625,0.962982177734375,-0.15972900390625
1774158170529770200,10.789770263671874,-0.0070343017578125,0.986419677734375,-0.134796142578125
1774158170549762000,10.809761962890626,-0.0091400146484375,0.9356536865234375,-0.14422607421875
1774158170569755100,10.829755126953126,0.006103515625,1.0337982177734375,-0.170867919921875
1774158170589747000,10.849746826171875,-0.0294189453125,1.087738037109375,-0.18505859375
1774158170609740000,10.869739990234375,-0.07781982421875,0.9130401611328125,-0.164276123046875
1774158170629732000,10.889732177734375,-0.06854248046875,0.9072418212890625,-0.2115478515625
1774158170649725000,10.909724853515625,-0.0020904541015625,0.9715728759765625,-0.1986541748046875
1774158170669718000,10.929718017578125,-0.01519775390625,1.0391387939453125,-0.158843994140625
1774158170689710000,10.9497099609375,-0.04925537109375,0.9353790283203125,-0.1836090087890625
1774158170709703000,10.969702880859375,-0.0140533447265625,0.959014892578125,-0.2071990966796875
1774158170729695000,10.989695068359374,-0.0150299072265625,0.99658203125,-0.21563720703125
1774158170749688000,11.00968798828125,-0.0069122314453125,0.9896392822265625,-0.2014923095703125
1774158170769680100,11.02968017578125,-0.00823974609375,0.9585723876953125,-0.192108154296875
1774158170789673200,11.049673095703126,-0.0504150390625,0.96923828125,-0.2001800537109375
1774158170809665000,11.0696650390625,-0.0072021484375,1.0098876953125,-0.222381591796875
1774158170829658000,11.089658203125,-0.0269317626953125,0.950653076171875,-0.23016357421875
1774158170849650200,11.109650146484375,-0.011077880859375,0.9247589111328125,-0.2412109375
1774158170869643000,11.12964306640625,-0.0184326171875,0.8763580322265625,-0.254608154296875
1774158170889634800,11.149634765625,0.049774169921875,0.9748077392578125,-0.25732421875
1774158170909628000,11.1696279296875,-0.037109375,0.82025146484375,-0.2737579345703125
1774158170929619700,11.18961962890625,0.009979248046875,1.0041656494140625,-0.254608154296875
1774158170949612800,11.20961279296875,0.0771026611328125,0.984771728515625,-0.2582550048828125
1774158170969604900,11.22960498046875,0.0960845947265625,0.9164276123046875,-0.255615234375
1774158170989597700,11.24959765625,0.0968170166015625,0.965789794921875,-0.3056640625
1774158171009590800,11.2695908203125,0.1274871826171875,1.04876708984375,-0.319122314453125
1774158171029583000,11.2895830078125,0.0903778076171875,1.1149749755859375,-0.2838287353515625
1774158171049575700,11.30957568359375,0.1163330078125,1.085906982421875,-0.2356719970703125
1774158171069568000,11.329568115234375,0.1912994384765625,0.910125732421875,-0.1512603759765625
1774158171089561000,11.34956103515625,-0.2552947998046875,0.6559906005859375,-0.256011962890625
1774158171109553000,11.369552978515625,0.015106201171875,0.7753753662109375,-0.316741943359375
1774158171129546000,11.3895458984375,0.2065582275390625,1.0982208251953125,-0.22003173828125
1774158171149537800,11.409537841796874,0.14581298828125,0.965911865234375,-0.263946533203125
1774158171169531000,11.42953076171875,0.07940673828125,0.9381103515625,-0.2615203857421875
1774158171189523000,11.44952294921875,0.0699920654296875,0.9027252197265625,-0.28790283203125
1774158171209515800,11.469515869140626,0.038818359375,0.88507080078125,-0.301422119140625
1774158171229507800,11.4895078125,0.1029205322265625,0.93096923828125,-0.2666473388671875
1774158171249501000,11.5095009765625,0.0745849609375,0.945465087890625,-0.2510986328125
1774158171269493000,11.529492919921875,0.068206787109375,0.935394287109375,-0.263214111328125
1774158171289485800,11.54948583984375,0.0474853515625,0.916015625,-0.2890472412109375
1774158171309478000,11.569477783203125,0.045745849609375,0.9493560791015625,-0.2862091064453125
1774158171329471000,11.589470947265625,0.0975341796875,0.906280517578125,-0.2939910888671875
1774158171349464000,11.609464111328125,0.13226318359375,0.897857666015625,-0.2718658447265625
1774158171369455900,11.629455810546874,0.089935302734375,0.9015350341796875,-0.2740325927734375
1774158171389449000,11.649448974609374,0.0813140869140625,0.8856964111328125,-0.2903900146484375
1774158171409441000,11.66944091796875,0.1007843017578125,0.887298583984375,-0.3021087646484375
1774158171429433900,11.689433837890626,0.0919647216796875,0.9396209716796875,-0.3039093017578125
1774158171449426000,11.709426025390625,0.06982421875,0.920074462890625,-0.32696533203125
1774158171469419000,11.7294189453125,0.0841522216796875,0.9461212158203125,-0.3247222900390625
1774158171489410800,11.749410888671875,0.09320068359375,0.929290771484375,-0.295745849609375
1774158171509404000,11.76940380859375,0.0745697021484375,0.9032745361328125,-0.2846527099609375
1774158171529395700,11.789395751953125,0.05072021484375,0.8672027587890625,-0.3035736083984375
1774158171549388800,11.809388916015624,0.0811767578125,0.96185302734375,-0.3114776611328125
1774158171569381000,11.829381103515624,0.0699462890625,0.907470703125,-0.29595947265625
1774158171589374000,11.8493740234375,0.0219268798828125,0.7942352294921875,-0.2645263671875
1774158171609366000,11.869365966796876,0.0253143310546875,0.8270416259765625,-0.302093505859375
1774158171629359000,11.889359130859376,0.035186767578125,0.86468505859375,-0.33734130859375
1774158171649351000,11.909350830078125,0.048919677734375,0.8770751953125,-0.3161468505859375
1774158171669344000,11.929343994140625,0.04876708984375,0.9091644287109375,-0.2932586669921875
1774158171689335800,11.949335693359375,0.0496978759765625,0.85125732421875,-0.3195953369140625
1774158171709329000,11.969328857421875,0.0525054931640625,0.8900909423828125,-0.3688201904296875
1774158171729321000,11.989321044921875,0.081573486328125,0.907440185546875,-0.301544189453125
1774158171749313800,12.009313720703124,0.066070556640625,0.9080810546875,-0.2923126220703125
1774158171769307000,12.029306884765624,0.039642333984375,0.876312255859375,-0.3177642822265625
1774158171789299000,12.049298828125,0.0634307861328125,0.8706817626953125,-0.342681884765625
1774158171809291800,12.069291748046876,0.1368865966796875,0.861328125,-0.3010711669921875
1774158171829283800,12.089283935546876,0.0304718017578125,0.8511962890625,-0.277191162109375
1774158171849277000,12.10927685546875,0.0728607177734375,0.800567626953125,-0.3047332763671875
1774158171869268500,12.1292685546875,0.0876617431640625,0.8035888671875,-0.3219146728515625
1774158171889261600,12.149261474609375,0.0634918212890625,0.83514404296875,-0.338653564453125
1774158171909253600,12.169253662109375,0.0596923828125,0.824798583984375,-0.3144378662109375
1774158171929246500,12.18924658203125,-0.06292724609375,0.758056640625,-0.305938720703125
1774158171949238500,12.209238525390624,-0.0692291259765625,0.7113494873046875,-0.3167572021484375
1774158171969231600,12.229231689453124,-0.028106689453125,0.7728729248046875,-0.2525634765625
1774158171989223400,12.249223388671876,0.01104736328125,0.7567901611328125,-0.1313934326171875
1774158172009216500,12.269216552734376,-0.0816802978515625,0.68878173828125,-0.1207122802734375
1774158172029208300,12.289208251953125,-0.1644744873046875,0.783355712890625,-0.1990966796875
1774158172049201400,12.309201416015625,-0.1452789306640625,0.9832611083984375,-0.211273193359375
1774158172069193700,12.32919384765625,0.0182342529296875,1.2314605712890625,-0.2218170166015625
1774158172089186300,12.349186279296875,0.1266632080078125,1.272674560546875,-0.240264892578125
1774158172109178600,12.3691787109375,-0.007781982421875,1.39129638671875,-0.19244384765625
1774158172129171700,12.389171630859375,-0.075225830078125,1.5457916259765625,-0.1622772216796875
1774158172149163500,12.40916357421875,0.047607421875,1.46661376953125,-0.1332550048828125
1774158172169156600,12.429156494140624,0.167572021484375,1.3343505859375,-0.0958099365234375
1774158172189148400,12.4491484375,0.177734375,1.199249267578125,-0.0488739013671875
1774158172209141500,12.4691416015625,0.151123046875,1.0286865234375,-0.0648345947265625
1774158172229133600,12.489133544921875,0.108978271484375,0.913543701171875,-0.0709381103515625
1774158172249126400,12.50912646484375,0.009490966796875,0.883758544921875,-0.08477783203125
1774158172269119500,12.529119384765625,-0.0259857177734375,0.68011474609375,-0.048828125
1774158172289111600,12.549111572265625,-0.054290771484375,0.6828765869140625,-0.063995361328125
1774158172309104400,12.5691044921875,-0.089599609375,0.6557159423828125,-0.057952880859375
1774158172329096400,12.589096435546875,-0.0089263916015625,0.66064453125,-0.0015106201171875
1774158172349089500,12.609089599609375,0.031585693359375,0.78485107421875,0.076568603515625
1774158172369081600,12.62908154296875,0.03045654296875,0.8569488525390625,0.099609375
1774158172389074700,12.64907470703125,0.13775634765625,0.8298492431640625,0.0608062744140625
1774158172409066500,12.66906640625,0.0535430908203125,0.8259429931640625,-0.01434326171875
1774158172429059600,12.6890595703125,-0.0560302734375,0.6962432861328125,-0.105865478515625
1774158172449051600,12.7090517578125,-0.0256805419921875,0.6476287841796875,-0.1854248046875
1774158172469044500,12.72904443359375,0.0168914794921875,0.7920074462890625,-0.2756195068359375
1774158172489036500,12.74903662109375,0.038665771484375,1.1548919677734375,-0.360382080078125
1774158172509029600,12.769029541015625,0.2084808349609375,1.7097015380859375,-0.4470367431640625
1774158172529021400,12.789021484375,0.10992431640625,1.90509033203125,-0.603179931640625
1774158172549014500,12.8090146484375,0.1740875244140625,1.5272979736328125,-0.5702667236328125
1774158172569006300,12.82900634765625,0.2342376708984375,1.3478546142578125,-0.48248291015625
1774158172588999400,12.84899951171875,0.163421630859375,1.3122406005859375,-0.315643310546875
1774158172608991700,12.86899169921875,0.106719970703125,1.0678863525390625,-0.15069580078125
1774158172628984600,12.888984619140626,0.0444793701171875,0.7426605224609375,-0.135589599609375
1774158172648976600,12.9089765625,-0.1096649169921875,0.646759033203125,-0.0931243896484375
1774158172668969700,12.9289697265625,-0.1987457275390625,0.7635040283203125,-0.0912628173828125
1774158172688961500,12.94896142578125,0.5358123779296875,0.7052154541015625,-0.116455078125
1774158172708954600,12.96895458984375,-0.1812896728515625,0.5596771240234375,-0.235382080078125
1774158172728946400,12.988946533203125,0.0254058837890625,0.3911590576171875,-0.2828521728515625
1774158172748939500,13.008939453125,0.29766845703125,0.62005615234375,-0.2336883544921875
1774158172768932600,13.0289326171875,0.36065673828125,0.744903564453125,-0.101165771484375
1774158172788924400,13.04892431640625,-0.1347503662109375,0.720550537109375,0.0045928955078125
1774158172808917500,13.06891748046875,-0.1136932373046875,0.56854248046875,-0.06243896484375
1774158172828909600,13.08890966796875,0.02337646484375,0.6967926025390625,-0.253631591796875
1774158172848902400,13.10890234375,-0.1856536865234375,0.807037353515625,-0.2300567626953125
1774158172868894500,13.12889453125,-0.208587646484375,0.89984130859375,-0.292724609375
1774158172888887600,13.148887451171875,-0.293731689453125,1.118560791015625,-0.366180419921875
1774158172908879600,13.168879638671875,-0.234161376953125,1.340057373046875,-0.3802490234375
1774158172928872700,13.188872802734375,-0.03240966796875,1.629425048828125,-0.4083251953125
1774158172948864500,13.208864501953125,-0.0915679931640625,2.03021240234375,-0.274169921875
1774158172968857600,13.228857666015625,0.0593109130859375,1.7724151611328125,-0.02142333984375
1774158172988849700,13.248849609375,0.446807861328125,1.3749542236328125,0.0258636474609375
1774158173008842500,13.268842529296874,0.097625732421875,1.3008270263671875,-0.14984130859375
1774158173028834600,13.28883447265625,-0.1339569091796875,1.03643798828125,-0.158935546875
1774158173048827400,13.308827392578126,-0.141265869140625,0.9339141845703125,-0.1508941650390625
1774158173068819500,13.3288193359375,-0.0417938232421875,0.9024658203125,-0.0623626708984375
1774158173088812500,13.3488125,0.076141357421875,0.7864227294921875,0.05303955078125
1774158173108804400,13.368804443359375,0.0126800537109375,0.562774658203125,0.1279144287109375
1774158173128797400,13.38879736328125,-0.1160430908203125,0.4757232666015625,0.2036590576171875
1774158173148789800,13.408789794921875,-0.1428070068359375,0.465362548828125,0.295623779296875
1774158173168782600,13.428782470703124,0.08087158203125,0.639129638671875,0.291473388671875
1774158173188774700,13.448774658203124,0.012481689453125,0.95098876953125,0.1563568115234375
1774158173208767500,13.468767578125,-0.012939453125,0.97430419921875,0.1762237548828125
1774158173228759600,13.488759521484376,0.100311279296875,0.858428955078125,0.2138824462890625
1774158173248752600,13.508752685546876,0.02459716796875,0.922088623046875,0.2227783203125
1774158173268744400,13.528744384765625,0.20965576171875,1.2989501953125,-0.069427490234375
1774158173288737500,13.548737548828125,0.0719146728515625,2.029510498046875,-0.4596099853515625
1774158173308729300,13.568729248046875,-0.461639404296875,2.0230255126953125,-0.63287353515625
1774158173328722400,13.588722412109375,-0.094146728515625,1.24981689453125,-0.59906005859375
1774158173348714500,13.608714599609375,0.3744964599609375,1.2236328125,-0.3871917724609375
1774158173368707300,13.628707275390624,0.2311248779296875,1.7031707763671875,-0.406494140625
1774158173388699600,13.64869970703125,-0.140625,1.9122772216796875,-0.5085601806640625
1774158173408692500,13.6686923828125,0.0710906982421875,1.752960205078125,-0.455230712890625
1774158173428684500,13.6886845703125,0.1099853515625,1.54437255859375,-0.152496337890625
1774158173448677600,13.708677734375,0.113739013671875,1.22686767578125,-0.1524658203125
1774158173468670700,13.728670654296875,0.0492095947265625,0.97967529296875,-0.1513519287109375
1774158173488662500,13.74866259765625,-0.008056640625,0.7067718505859375,0.0422821044921875
1774158173508655600,13.768655517578125,-0.045135498046875,0.6186676025390625,0.1811065673828125
1774158173528647400,13.7886474609375,-0.0049285888671875,0.4824066162109375,0.1224822998046875
1774158173548640500,13.808640625,0.013275146484375,0.48126220703125,-0.0074005126953125
1774158173568632600,13.828632568359374,-0.1009674072265625,0.5284576416015625,-0.085113525390625
1774158173588625400,13.84862548828125,-0.1815185546875,0.57257080078125,-0.0986480712890625
1774158173608617500,13.868617431640626,0.0385894775390625,0.478973388671875,-0.11810302734375
1774158173628610600,13.888610595703126,0.0662384033203125,0.5195465087890625,-0.1163787841796875
1774158173648602400,13.908602294921875,0.0788421630859375,0.77081298828125,-0.1010284423828125
1774158173668595500,13.928595458984375,0.0353240966796875,0.851959228515625,-0.06939697265625
1774158173688587500,13.94858740234375,0.053802490234375,0.83966064453125,-0.017120361328125
1774158173708580600,13.96858056640625,0.0897369384765625,0.8963470458984375,0.04998779296875
1774158173728572700,13.98857275390625,0.0231475830078125,1.001190185546875,-0.0631561279296875
1774158173748565500,14.0085654296875,0.0193634033203125,1.094573974609375,-0.16802978515625
1774158173768557600,14.0285576171875,0.0796356201171875,1.2497406005859375,-0.21124267578125
1774158173788550700,14.048550537109374,0.0061492919921875,1.305145263671875,-0.0673980712890625
1774158173808542500,14.06854248046875,0.0311737060546875,1.5629730224609375,0.0482635498046875
1774158173828535600,14.08853564453125,-0.1903839111328125,1.4552001953125,-0.0596160888671875
1774158173848527400,14.10852734375,-0.1716766357421875,1.5160064697265625,-0.10760498046875
1774158173868520400,14.1285205078125,-0.042572021484375,1.3907470703125,-0.091827392578125
1774158173888512300,14.14851220703125,0.0015106201171875,1.155853271484375,-0.033111572265625
1774158173908505300,14.16850537109375,-0.0742340087890625,1.0345611572265625,0.0770111083984375
1774158173928497400,14.188497314453125,-0.1904449462890625,1.0643310546875,0.1788177490234375
1774158173948490500,14.208490478515625,-0.2229766845703125,0.993927001953125,0.1472930908203125
1774158173968482600,14.228482666015625,-0.1642913818359375,0.991546630859375,0.1280364990234375
1774158173988475400,14.248475341796874,-0.1613311767578125,0.98260498046875,0.0691986083984375
1774158174008467500,14.268467529296874,-0.18206787109375,1.02178955078125,0.005615234375
1774158174028460500,14.28846044921875,-0.056304931640625,1.0296630859375,-0.02783203125
1774158174048452400,14.308452392578126,-0.0042724609375,0.9623260498046875,-0.0040740966796875
1774158174068445400,14.328445556640625,-0.0425567626953125,0.914825439453125,0.0653076171875
1774158174088437200,14.348437255859375,-0.1060943603515625,0.8833160400390625,0.1338958740234375
1774158174108430300,14.368430419921875,-0.0872802734375,0.7789154052734375,0.14581298828125
1774158174128422400,14.38842236328125,-0.0157623291015625,0.706207275390625,0.0897674560546875
1774158174148415200,14.408415283203125,-0.1472320556640625,0.7060394287109375,0.085906982421875
1774158174168407600,14.428407470703124,-0.094390869140625,0.7487945556640625,-0.07135009765625
1774158174188400400,14.448400390625,-0.1039886474609375,0.6915283203125,-0.114105224609375
1774158174208392400,14.468392333984376,-0.1190032958984375,0.8466796875,-0.01507568359375
1774158174228385500,14.488385498046876,-0.0870361328125,0.8994903564453125,0.087127685546875
1774158174248377300,14.50837744140625,-0.08831787109375,0.8529205322265625,0.0861663818359375
1774158174268370400,14.528370361328125,-0.0475921630859375,0.82110595703125,0.0612945556640625
1774158174288362500,14.548362548828125,-0.0859222412109375,0.84906005859375,0.034576416015625
1774158174308355300,14.568355224609375,-0.054443359375,0.9528656005859375,0.0223541259765625
1774158174328347400,14.588347412109375,-0.002197265625,1.0206756591796875,0.0101165771484375
1774158174348340500,14.608340576171875,-0.033721923828125,1.018890380859375,0.01031494140625
1774158174368332300,14.628332275390624,-0.093841552734375,1.07928466796875,0.1304931640625
1774158174388325400,14.648325439453124,-0.0806121826171875,1.171630859375,0.1969451904296875
1774158174408317400,14.6683173828125,-0.0695343017578125,1.03546142578125,0.1597900390625
1774158174428310300,14.688310302734376,-0.12274169921875,1.0904388427734375,0.06280517578125
1774158174448302600,14.708302490234376,0.0803375244140625,1.397491455078125,-0.0514984130859375
1774158174468295400,14.72829541015625,-0.0377349853515625,1.565032958984375,-0.1500701904296875
1774158174488287500,14.74828759765625,-0.275421142578125,1.2821044921875,-0.200225830078125
1774158174508280600,14.768280517578125,-0.235809326171875,0.9036865234375,-0.2970123291015625
1774158174528273400,14.7882734375,-0.1601409912109375,0.89154052734375,-0.3476715087890625
1774158174548265500,14.808265380859375,0.041900634765625,1.0745086669921875,-0.45379638671875
1774158174568258300,14.82825830078125,0.0167388916015625,1.301483154296875,-0.52117919921875
1774158174588250400,14.84825048828125,-0.0670166015625,1.3017425537109375,-0.474884033203125
1774158174608243500,14.868243408203124,-0.068878173828125,1.15936279296875,-0.3404388427734375
1774158174628235300,14.8882353515625,0.002685546875,1.084991455078125,-0.22039794921875
1774158174648228400,14.908228271484376,-0.0006103515625,0.99212646484375,-0.0954742431640625
1774158174668220400,14.928220458984375,0.0216064453125,0.911285400390625,-0.05389404296875
1774158174688213200,14.948213134765625,0.0351409912109375,0.8308868408203125,-0.068389892578125
1774158174708205600,14.96820556640625,0.054779052734375,0.747772216796875,-0.0605926513671875
1774158174728198400,14.988198486328125,-0.0807647705078125,0.6289825439453125,0.020660400390625
1774158174748190500,15.0081904296875,0.013702392578125,0.7030792236328125,0.096649169921875
1774158174768183600,15.02818359375,0.0001220703125,0.72491455078125,-0.05596923828125
1774158174788175400,15.04817529296875,0.0029296875,0.7097320556640625,-0.1796875
1774158174808168400,15.06816845703125,0.07196044921875,0.7203521728515625,-0.2116241455078125
1774158174828160300,15.08816015625,0.168548583984375,0.791595458984375,-0.1280059814453125
1774158174848153300,15.1081533203125,-0.0037078857421875,0.7454681396484375,-0.09442138671875
1774158174868147200,15.128147216796876,0.0361785888671875,0.801177978515625,-0.1120452880859375
1774158174888140300,15.148140380859376,0.0621185302734375,0.8963623046875,-0.130096435546875
1774158174908132000,15.168132080078125,-0.008056640625,0.9439544677734375,-0.1581878662109375
1774158174928125200,15.188125244140625,-0.0969696044921875,0.973541259765625,-0.193115234375
1774158174948117200,15.2081171875,-0.0498504638671875,1.0380859375,-0.2072906494140625
1774158174968110000,15.228110107421875,0.1023406982421875,1.15985107421875,-0.244842529296875
1774158174988102100,15.24810205078125,0.2559814453125,1.2726593017578125,-0.2537689208984375
1774158175008095200,15.26809521484375,0.186279296875,1.2889556884765625,-0.128326416015625
1774158175028087000,15.288087158203124,-0.021209716796875,1.5453338623046875,-0.0255279541015625
1774158175048080100,15.308080078125,-0.1444549560546875,1.4740142822265625,-0.1575927734375
1774158175068072200,15.328072265625,-0.1788177490234375,1.26715087890625,-0.2297515869140625
1774158175088065000,15.34806494140625,-0.112701416015625,1.0295867919921875,-0.11090087890625
1774158175108057300,15.368057373046875,-0.1798095703125,0.9031829833984375,0.023681640625
1774158175128050200,15.38805029296875,-0.32830810546875,0.9608917236328125,0.063629150390625
1774158175148042200,15.408042236328125,-0.281982421875,1.120513916015625,-0.06243896484375
1774158175168035300,15.428035400390625,-0.149871826171875,1.1927947998046875,-0.24267578125
1774158175188027100,15.448027099609375,-0.024169921875,1.2245025634765625,-0.2059478759765625
1774158175208020200,15.468020263671875,0.026153564453125,1.1191253662109375,-0.108154296875
1774158175228012000,15.488011962890624,-0.021209716796875,1.0506591796875,-0.11212158203125
1774158175248005000,15.508005126953124,-0.0386810302734375,0.956512451171875,-0.1328582763671875
1774158175267997200,15.5279970703125,-0.0615997314453125,0.812896728515625,-0.11212158203125
1774158175287990000,15.547989990234376,-0.061676025390625,0.7154541015625,-0.09979248046875
1774158175307982000,15.567982177734375,-0.067230224609375,0.677825927734375,-0.0810394287109375
1774158175327975000,15.587974853515625,-0.0778350830078125,0.6446685791015625,-0.0377349853515625
1774158175347967200,15.60796728515625,-0.047210693359375,0.679840087890625,0.0035858154296875
1774158175367960300,15.627960205078125,-0.002685546875,0.7006988525390625,0.0435028076171875
1774158175387952000,15.6479521484375,-0.0562896728515625,0.7476959228515625,0.0653228759765625
1774158175407945200,15.6679453125,-0.083770751953125,0.7862091064453125,0.036712646484375
1774158175427937300,15.687937255859374,-0.0634002685546875,0.79217529296875,-0.010162353515625
1774158175447930000,15.70793017578125,-0.003173828125,0.8291168212890625,-0.0579986572265625
1774158175467922200,15.727922119140626,-0.002593994140625,0.85040283203125,-0.0660400390625
1774158175487915000,15.7479150390625,-0.058563232421875,0.9216766357421875,-0.035064697265625
1774158175507907000,15.767906982421875,-0.0045318603515625,1.027099609375,-0.0221099853515625
1774158175527900200,15.787900146484375,0.0587158203125,1.150177001953125,-0.024993896484375
1774158175547892000,15.80789208984375,0.0660247802734375,1.2238311767578125,-0.0677642822265625
1774158175567885000,15.827885009765625,0.0312347412109375,1.2416229248046875,-0.00872802734375
1774158175587877000,15.847877197265625,0.08319091796875,1.2447967529296875,0.017608642578125
1774158175607870200,15.8678701171875,-0.095703125,1.3273162841796875,-0.090057373046875
1774158175627862300,15.8878623046875,-0.05645751953125,1.492950439453125,-0.2244873046875
1774158175647855000,15.907855224609374,-0.216796875,1.60296630859375,-0.302093505859375
1774158175667847200,15.92784716796875,-0.312286376953125,1.4228515625,-0.3133697509765625
1774158175687840300,15.94784033203125,-0.278961181640625,1.016448974609375,-0.3267669677734375
1774158175707832000,15.96783203125,-0.180999755859375,0.8093109130859375,-0.3663177490234375
1774158175727825200,15.9878251953125,-0.2008209228515625,0.98602294921875,-0.3367156982421875
1774158175747817000,16.00781689453125,0.0279541015625,1.1353607177734375,-0.265411376953125
1774158175767810000,16.02781005859375,-0.0711822509765625,1.1335906982421875,-0.3653717041015625
1774158175787802000,16.047802001953126,-0.1371612548828125,0.9498443603515625,-0.3097381591796875
1774158175807795000,16.067794921875,-0.0536346435546875,0.9161376953125,-0.1869659423828125
1774158175827787300,16.087787353515626,-0.0358734130859375,0.921478271484375,-0.099578857421875
1774158175847780400,16.1077802734375,-0.009979248046875,0.8309173583984375,-0.0726165771484375
1774158175867770400,16.127770263671874,0.019989013671875,0.749908447265625,-0.066131591796875
1774158175887763500,16.147763427734375,0.079742431640625,0.6862945556640625,-0.0688629150390625
1774158175907755500,16.167755615234373,0.0404510498046875,0.6331329345703125,-0.046142578125
1774158175927748400,16.187748291015627,0.031890869140625,0.6731414794921875,-0.011474609375
1774158175947740700,16.20774072265625,0.04815673828125,0.7930755615234375,-0.027801513671875
1774158175967733500,16.2277333984375,0.06842041015625,0.8806610107421875,-0.0879669189453125
1774158175987725600,16.2477255859375,0.071685791015625,0.84228515625,-0.18341064453125
1774158176007718700,16.26771875,0.0774993896484375,0.78271484375,-0.1913604736328125
1774158176027710500,16.28771044921875,0.0977630615234375,0.83258056640625,-0.132598876953125
1774158176047703600,16.30770361328125,0.13604736328125,0.8992156982421875,-0.11199951171875
1774158176067695600,16.327695556640624,0.09228515625,0.9580535888671875,-0.1519927978515625
1774158176087688400,16.3476884765625,0.041839599609375,1.0030059814453125,-0.1481170654296875
1774158176107680500,16.367680419921875,-0.0349578857421875,1.07110595703125,-0.1020050048828125
1774158176127673600,16.387673583984373,-0.0433349609375,1.0217742919921875,-0.155731201171875
1774158176147665400,16.40766552734375,0.044647216796875,1.047821044921875,-0.249176025390625
1774158176167658500,16.427658447265625,0.191680908203125,1.17156982421875,-0.2033233642578125
1774158176187650600,16.447650634765626,0.054595947265625,1.214874267578125,0.007232666015625
1774158176207643400,16.467643310546876,-0.0677337646484375,1.3037567138671875,0.1343841552734375
1774158176227635700,16.4876357421875,-0.2043609619140625,1.3421173095703125,-0.0165863037109375
1774158176247628500,16.507628662109376,-0.3217010498046875,1.29754638671875,-0.295928955078125
1774158176267620600,16.52762060546875,-0.3542022705078125,1.115081787109375,-0.41094970703125
1774158176287613700,16.54761376953125,-0.3609619140625,0.9063873291015625,-0.2912750244140625
1774158176307605500,16.56760546875,-0.2500152587890625,0.9507904052734375,-0.0456390380859375
1774158176327598600,16.5875986328125,-0.2191009521484375,0.9590606689453125,0.056732177734375
1774158176347590400,16.60759033203125,-0.3648681640625,1.084136962890625,0.058624267578125
1774158176367583500,16.62758349609375,-0.266265869140625,1.2305450439453125,0.0177459716796875
1774158176387575600,16.647575439453124,-0.10748291015625,1.221954345703125,-0.10882568359375
1774158176407568400,16.667568359375,-0.0922088623046875,1.1443023681640625,-0.1571044921875
1774158176427560400,16.687560546875,-0.15673828125,0.9080657958984375,-0.2028045654296875
1774158176447553500,16.707553466796874,-0.121368408203125,0.8390655517578125,-0.2433624267578125
1774158176467545600,16.727545654296875,-0.057861328125,0.88751220703125,-0.14093017578125
1774158176487538700,16.74753857421875,-0.092620849609375,0.857421875,-0.0951690673828125
1774158176507530500,16.767530517578123,-0.1654205322265625,0.7581939697265625,0.03399658203125
1774158176527523600,16.787523681640625,-0.1422576904296875,0.7320709228515625,0.119171142578125
1774158176547515600,16.807515625,-0.021697998046875,0.6983184814453125,0.02545166015625
1774158176567508500,16.827508544921876,-0.0520172119140625,0.7110137939453125,-0.072479248046875
1774158176587500500,16.84750048828125,-0.0733184814453125,0.792816162109375,-0.13714599609375
1774158176607493600,16.86749365234375,-0.074371337890625,0.914031982421875,-0.0172119140625
1774158176627485400,16.8874853515625,-0.0916748046875,0.9068145751953125,0.085174560546875
1774158176647478500,16.907478515625,0.059722900390625,0.850128173828125,0.10845947265625
1774158176667470300,16.92747021484375,-0.1016845703125,1.0709381103515625,-0.419189453125
1774158176687463400,16.94746337890625,-0.2159881591796875,0.64544677734375,0.2435150146484375
1774158176707455700,16.967455810546873,-0.0221099853515625,0.893829345703125,0.2524261474609375
1774158176727448600,16.987448486328127,-0.0237274169921875,0.8831634521484375,0.3518218994140625
1774158176747440600,17.007440673828125,-0.0374298095703125,1.0023651123046875,0.1479034423828125
1774158176767433700,17.027433837890626,-0.074676513671875,1.1032562255859375,0.0457305908203125
1774158176787425500,17.047425537109376,-0.0501861572265625,1.2239227294921875,0.00775146484375
1774158176807418600,17.067418701171874,-0.0777435302734375,1.2723846435546875,0.0090484619140625
1774158176827410400,17.087410400390624,-0.0016937255859375,1.4159088134765625,-0.01263427734375
1774158176847403500,17.107403564453126,-0.077911376953125,1.45953369140625,-0.075592041015625
1774158176867395800,17.127395751953124,-0.26629638671875,1.448883056640625,-0.1376495361328125
1774158176887389000,17.147388916015625,-0.3572998046875,1.32342529296875,-0.2045440673828125
1774158176907381000,17.167381103515623,-0.3032379150390625,1.0140228271484375,-0.2529754638671875
1774158176927373800,17.187373779296873,-0.1416778564453125,0.806243896484375,-0.2381591796875
1774158176947366000,17.207365966796875,-0.0881500244140625,0.9380950927734375,-0.1939697265625
1774158176967358700,17.227358642578125,-0.062469482421875,1.0516204833984375,-0.220489501953125
1774158176987351000,17.24735107421875,-0.0992584228515625,1.1982879638671875,-0.1833648681640625
1774158177007344000,17.26734423828125,-0.085296630859375,1.1335296630859375,-0.0466156005859375
1774158177027336000,17.2873359375,-0.0495758056640625,1.0413055419921875,0.056854248046875
1774158177047329000,17.3073291015625,-0.051971435546875,0.9183502197265625,0.119537353515625
1774158177067321000,17.327321044921874,0.0240325927734375,0.7933807373046875,0.0261688232421875
1774158177087314000,17.34731396484375,0.0462799072265625,0.7496185302734375,-0.0878143310546875
1774158177107306000,17.367305908203125,-0.030242919921875,0.7342681884765625,-0.21405029296875
1774158177127298800,17.387298828125,-0.1067047119140625,0.7504730224609375,-0.3049163818359375
1774158177147291000,17.407290771484377,0.12286376953125,0.6239013671875,-0.2758636474609375
1774158177167284000,17.427283935546875,0.332550048828125,0.66534423828125,-0.0415802001953125
1774158177187275800,17.44727587890625,-0.0978851318359375,0.7841033935546875,0.04827880859375
1774158177207268900,17.467268798828126,-0.045013427734375,0.820281982421875,-0.0649871826171875
1774158177227261000,17.487260986328124,0.0121002197265625,0.814727783203125,-0.09271240234375
1774158177247254000,17.50725390625,0.074676513671875,0.8514556884765625,-0.085052490234375
1774158177267246000,17.52724609375,0.0595245361328125,0.866729736328125,-0.0384521484375
1774158177287239000,17.547239013671874,0.0433349609375,0.9384307861328125,0.0258636474609375
1774158177307231000,17.56723095703125,-0.0172882080078125,1.11737060546875,0.0416107177734375
1774158177327224000,17.58722412109375,-0.098907470703125,1.16876220703125,-0.052093505859375
1774158177347216000,17.6072158203125,-0.07843017578125,1.187957763671875,-0.201995849609375
1774158177367209000,17.627208984375,0.140625,1.243133544921875,-0.2509307861328125
1774158177387200800,17.64720068359375,0.1575775146484375,1.3296661376953125,-0.05224609375
1774158177407193900,17.66719384765625,-0.09674072265625,1.4058380126953125,0.03155517578125
1774158177427186000,17.68718603515625,-0.2057952880859375,1.2709197998046875,-0.093994140625
1774158177447178800,17.7071787109375,-0.270904541015625,1.235443115234375,-0.2321624755859375
1774158177467171000,17.727171142578126,-0.0962066650390625,1.109039306640625,-0.147308349609375
1774158177487164000,17.747163818359375,-0.14990234375,1.02178955078125,-0.0106964111328125
1774158177507156000,17.767156005859373,-0.390655517578125,1.107574462890625,-0.0084381103515625
1774158177527149000,17.787149169921875,-0.3808441162109375,1.112213134765625,0.007232666015625
1774158177547140900,17.807140869140625,-0.29620361328125,1.0659027099609375,-0.0301666259765625
1774158177567134000,17.827134033203127,-0.2083740234375,1.0604705810546875,-0.1269378662109375
1774158177587126000,17.8471259765625,-0.0623321533203125,0.9608154296875,-0.1743316650390625
1774158177607118800,17.867118896484374,0.017730712890625,0.856201171875,-0.12713623046875
1774158177627111000,17.88711083984375,-0.058380126953125,0.938720703125,-0.0325775146484375
1774158177647104000,17.90710400390625,-0.049285888671875,0.866851806640625,0.0105438232421875
1774158177667095800,17.927095703125,-0.0541534423828125,0.786346435546875,-0.006683349609375
1774158177687089000,17.9470888671875,-0.105987548828125,0.7206268310546875,-0.03118896484375
1774158177707081000,17.9670810546875,-0.072418212890625,0.693389892578125,-0.0327911376953125
1774158177727073800,17.98707373046875,-0.028594970703125,0.691436767578125,-0.0392303466796875
1774158177747066000,18.007066162109375,-0.0148773193359375,0.7325439453125,-0.045806884765625
1774158177767059000,18.027058837890625,-0.057464599609375,0.7842864990234375,-0.0167083740234375
1774158177787051000,18.047051025390626,-0.0797882080078125,0.825042724609375,0.043701171875
1774158177807044000,18.067044189453124,-0.068023681640625,0.8363037109375,0.0528106689453125
1774158177827036000,18.087035888671874,-0.0415191650390625,0.8574066162109375,0.03961181640625
1774158177847029000,18.107029052734376,-0.0665435791015625,0.89312744140625,0.0261993408203125
1774158177867021000,18.12702099609375,-0.104217529296875,0.9189453125,0.01373291015625
1774158177887014000,18.147013916015624,-0.0937652587890625,1.05242919921875,0.0137939453125
1774158177907006000,18.167005859375,-0.05902099609375,1.144805908203125,0.012939453125
1774158177926999000,18.1869990234375,-0.051727294921875,1.230682373046875,0.0333251953125
1774158177946990800,18.206990966796877,-0.00982666015625,1.29095458984375,0.040252685546875
1774158177966984000,18.22698388671875,-0.0181121826171875,1.4103546142578125,-0.006439208984375
1774158177986976300,18.246976318359376,0.037322998046875,1.4185333251953125,-0.0377960205078125
1774158178006969000,18.266968994140626,-0.230072021484375,1.3665618896484375,-0.1315460205078125
1774158178026961200,18.286961181640624,-0.14874267578125,1.1850738525390625,-0.2347564697265625
1774158178046954000,18.3069541015625,-0.0453033447265625,1.0288543701171875,-0.2451171875
1774158178066946000,18.326946044921876,-0.1063079833984375,0.9063720703125,-0.3153533935546875
1774158178086939100,18.346939208984374,-0.184234619140625,0.8642730712890625,-0.362518310546875
1774158178106931000,18.366930908203123,-0.139404296875,1.0249481201171875,-0.3717803955078125
1774158178126924000,18.386924072265625,-0.061614990234375,1.164794921875,-0.240447998046875
1774158178146915800,18.406915771484375,-0.0225982666015625,1.102294921875,-0.1295928955078125
1774158178166909000,18.426908935546876,-0.0669097900390625,1.057891845703125,-0.15484619140625
1774158178186901000,18.44690087890625,0.0023040771484375,0.9515228271484375,-0.1679534912109375
1774158178206893800,18.466893798828124,-0.0069122314453125,0.84454345703125,-0.0852508544921875
1774158178226886100,18.48688623046875,-0.035736083984375,0.7724151611328125,-0.05145263671875
1774158178246878200,18.506878173828124,-0.0243682861328125,0.7469482421875,-0.0402374267578125
1774158178266871000,18.52687109375,-0.003662109375,0.7436370849609375,-0.0229949951171875
1774158178286863000,18.546863037109375,0.031524658203125,0.73590087890625,-0.0281219482421875
1774158178306856000,18.56685595703125,0.0742034912109375,0.7099609375,-0.0190887451171875
1774158178326848000,18.586847900390627,0.0068359375,0.8017425537109375,-0.040069580078125
1774158178346841000,18.606841064453125,0.0213470458984375,0.7898406982421875,-0.083160400390625
1774158178366833000,18.6268330078125,0.1206817626953125,0.7843017578125,-0.0915069580078125
1774158178386826000,18.646825927734376,0.1237640380859375,0.765594482421875,-0.082733154296875
1774158178406817800,18.66681787109375,0.103363037109375,0.871490478515625,-0.10015869140625
1774158178426811000,18.686810791015624,0.1595306396484375,0.995513916015625,-0.066741943359375
1774158178446803200,18.70680322265625,-0.0183563232421875,1.102752685546875,-0.0613861083984375
1774158178466796000,18.726796142578124,-0.083709716796875,1.0825347900390625,-0.116546630859375
1774158178486788000,18.7467880859375,0.056304931640625,1.1229248046875,-0.192230224609375
1774158178506781200,18.76678125,0.23785400390625,1.1927490234375,-0.0422821044921875
1774158178526773000,18.78677294921875,-0.046844482421875,1.4503936767578125,0.0143280029296875
1774158178546766000,18.80676611328125,-0.2059173583984375,1.3836822509765625,-0.0673980712890625
1774158178566758000,18.8267578125,-0.2883148193359375,1.3642120361328125,-0.20953369140625
1774158178586751000,18.8467509765625,-0.27569580078125,1.21490478515625,-0.250518798828125
1774158178606743000,18.866742919921876,-0.1443328857421875,0.94873046875,-0.1123199462890625
1774158178626735900,18.88673583984375,-0.377685546875,0.9984130859375,-0.0277557373046875
1774158178646728000,18.90672802734375,-0.2517547607421875,0.9616241455078125,0.0271759033203125
1774158178666721000,18.926720947265625,-0.2133026123046875,1.043243408203125,-0.047607421875
1774158178686713000,18.946713134765623,-0.2496795654296875,1.0299224853515625,-0.137298583984375
1774158178706706000,18.966705810546873,-0.14837646484375,0.9154205322265625,-0.0652313232421875
1774158178726698000,18.986697998046875,-0.1808013916015625,1.0423736572265625,-0.1079864501953125
1774158178746691000,19.006691162109377,-0.1186981201171875,1.0585174560546875,-0.0884552001953125
1774158178766683100,19.02668310546875,-0.0904693603515625,0.9472503662109375,-0.1598052978515625
1774158178786676000,19.046676025390624,-0.1232147216796875,0.999786376953125,-0.1938934326171875
1774158178806668000,19.06666796875,0.00714111328125,0.81378173828125,-0.0885009765625
1774158178826661000,19.0866611328125,0.04345703125,0.701873779296875,-0.0589599609375
1774158178846653000,19.10665283203125,-0.03521728515625,0.6643524169921875,-0.042083740234375
1774158178866645500,19.1266455078125,-0.107879638671875,0.7035980224609375,-0.058502197265625
1774158178886637600,19.146637451171873,-0.1135406494140625,0.7056884765625,-0.0890655517578125
1774158178906630400,19.16663037109375,-0.085174560546875,0.70977783203125,-0.0954437255859375
1774158178926622700,19.186622802734377,-0.048248291015625,0.754150390625,-0.012908935546875
1774158178946615600,19.206615478515626,0.031219482421875,0.7441558837890625,0.0314178466796875
1774158178966607600,19.226607666015624,0.0250396728515625,0.7898712158203125,0.0485992431640625
1774158178986600700,19.2466005859375,0.0063323974609375,0.856231689453125,0.04608154296875
1774158179006592500,19.266592529296876,-0.05523681640625,0.9712982177734375,0.015716552734375
1774158179026585600,19.286585693359374,-0.0905303955078125,1.066070556640625,0.0384674072265625
1774158179046577400,19.306577392578124,-0.0506744384765625,1.1558990478515625,0.14801025390625
1774158179066570500,19.326570556640625,0.0615997314453125,1.2061004638671875,0.272247314453125
1774158179086562600,19.3465625,0.186553955078125,1.2270965576171875,0.2392578125
1774158179106555400,19.366555419921873,0.067352294921875,1.20880126953125,0.03460693359375
1774158179126547500,19.38654736328125,-0.1125335693359375,1.2749176025390625,-0.1646728515625
1774158179146540500,19.40654052734375,-0.256317138671875,1.2015838623046875,-0.20452880859375
1774158179166532600,19.42653271484375,-0.38299560546875,0.9950408935546875,-0.185760498046875
1774158179186525700,19.446525634765624,-0.2691650390625,0.784637451171875,-0.198455810546875
1774158179206517500,19.466517578125,-0.105194091796875,0.818115234375,-0.2324676513671875
1774158179226510600,19.486510498046876,0.03619384765625,1.243896484375,-0.2375335693359375
1774158179246502700,19.506502685546874,-0.002227783203125,1.5661773681640625,-0.155487060546875
1774158179266495500,19.52649560546875,-0.164825439453125,1.4538726806640625,-0.0184478759765625
1774158179286487600,19.546487548828125,-0.161102294921875,1.2913360595703125,0.148223876953125
1774158179306480600,19.566480712890623,-0.056854248046875,1.1835174560546875,0.2525177001953125
1774158179326472400,19.586472412109377,-0.0429534912109375,1.0367431640625,0.1788177490234375
1774158179346465500,19.606465576171875,-0.0747528076171875,0.8602447509765625,0.0911712646484375
1774158179366457300,19.626457275390624,-0.030792236328125,0.7187652587890625,0.0512542724609375
1774158179386450400,19.646450439453126,-0.000091552734375,0.6551971435546875,0.02679443359375
1774158179406442800,19.66644287109375,-0.014434814453125,0.606231689453125,0.0311431884765625
1774158179426435600,19.686435546875,-0.03521728515625,0.61029052734375,0.07818603515625
1774158179446427600,19.706427734375,0.0008544921875,0.6316070556640625,0.06964111328125
1774158179466419500,19.72641943359375,0.0894927978515625,0.6232757568359375,0.010223388671875
1774158179486412500,19.74641259765625,0.123504638671875,0.660369873046875,0.0084686279296875
1774158179506404600,19.766404541015625,0.0539398193359375,0.691253662109375,0.002166748046875
1774158179526397400,19.7863974609375,0.035430908203125,0.7604827880859375,0.014862060546875
1774158179546389500,19.806389404296876,0.032684326171875,0.88018798828125,0.1074981689453125
1774158179566382600,19.826382568359374,-0.0387420654296875,1.0298614501953125,0.2229156494140625
1774158179586374400,19.84637451171875,-0.17303466796875,1.1988525390625,0.2958831787109375
1774158179606367500,19.866367431640626,-0.005157470703125,1.277252197265625,0.0850677490234375
1774158179626359600,19.886359619140624,0.0696868896484375,1.27783203125,-0.00152587890625
1774158179646352600,19.9063525390625,-0.2112274169921875,1.3561248779296875,0.0355224609375
1774158179666344700,19.9263447265625,-0.3455352783203125,1.3765869140625,-0.107696533203125
1774158179686337500,19.946337646484373,-0.4329071044921875,1.1261138916015625,-0.1201629638671875
1774158179706329600,19.96632958984375,-0.24224853515625,0.8567352294921875,0.049530029296875
1774158179726322700,19.98632275390625,-0.173583984375,0.9230499267578125,0.4043426513671875
1774158179746314500,20.006314453125,-0.2014923095703125,1.2499542236328125,0.41864013671875
1774158179766307600,20.0263076171875,-0.1472320556640625,1.414581298828125,0.1121978759765625
1774158179786299400,20.04629931640625,-0.1314544677734375,1.5287017822265625,-0.137237548828125
1774158179806292500,20.06629248046875,-0.2039642333984375,1.62335205078125,-0.16522216796875
1774158179826284500,20.086284423828126,-0.120208740234375,1.4830474853515625,0.0324249267578125
1774158179846277400,20.10627734375,0.0489959716796875,1.3102569580078125,0.1005401611328125
1774158179866269700,20.126269775390625,-0.0306396484375,1.156494140625,0.00299072265625
1774158179886262500,20.146262451171875,-0.050018310546875,0.9808197021484375,-0.12994384765625
1774158179906254600,20.166254638671877,-0.0260009765625,0.8447265625,-0.1319122314453125
1774158179926247700,20.18624755859375,0.013275146484375,0.6910552978515625,-0.0767822265625
1774158179946239500,20.206239501953124,0.0303192138671875,0.5697784423828125,0.00665283203125
1774158179966232600,20.226232666015626,0.078887939453125,0.4509429931640625,0.1217498779296875
1774158179986224400,20.246224365234376,0.071258544921875,0.453857421875,0.1668548583984375
1774158180006217500,20.266217529296874,0.027069091796875,0.4900665283203125,0.1727294921875
1774158180026209500,20.28620947265625,0.1124267578125,0.5507049560546875,0.23956298828125
1774158180046202400,20.306202392578125,0.2028350830078125,0.71295166015625,0.2760772705078125
1774158180066194400,20.3261943359375,0.122314453125,0.83721923828125,0.1508026123046875
1774158180086187500,20.3461875,0.0823211669921875,0.9171295166015625,-0.069000244140625
1774158180106179600,20.3661796875,-0.0473480224609375,1.0242462158203125,-0.20672607421875
1774158180126172400,20.38617236328125,-0.2923126220703125,1.154022216796875,-0.269317626953125
1774158180146164500,20.40616455078125,-0.3670196533203125,1.2813262939453125,-0.253265380859375
1774158180166157600,20.426157470703124,-0.2387542724609375,1.4326019287109375,-0.2192230224609375
1774158180186149600,20.446149658203126,-0.09991455078125,1.5029296875,-0.176666259765625
1774158180206142500,20.466142578125,0.2430419921875,1.41827392578125,-0.1633148193359375
1774158180226134500,20.486134521484374,0.20086669921875,1.2068023681640625,-0.202789306640625
1774158180246127600,20.506127685546875,-0.117034912109375,1.109649658203125,-0.265777587890625
1774158180266119400,20.526119384765625,-0.113311767578125,1.095611572265625,-0.3166961669921875
1774158180286112500,20.546112548828123,-0.089141845703125,1.08746337890625,-0.3607940673828125
1774158180306104300,20.566104248046877,-0.123809814453125,1.10546875,-0.4162750244140625
1774158180326097400,20.586097412109375,-0.1593017578125,0.9904022216796875,-0.4456939697265625
1774158180346089700,20.60608984375,-0.1882171630859375,0.945709228515625,-0.4816436767578125
1774158180366081500,20.62608154296875,-0.1956634521484375,1.0055084228515625,-0.5128173828125
1774158180386074600,20.64607470703125,-0.2498626708984375,1.00787353515625,-0.4716949462890625
1774158180406066400,20.66606640625,-0.26116943359375,0.9708404541015625,-0.3602752685546875
1774158180426059500,20.6860595703125,-0.1800384521484375,0.91302490234375,-0.2592010498046875
1774158180446051600,20.706051513671873,-0.1373443603515625,0.85333251953125,-0.1760101318359375
1774158180466044400,20.72604443359375,-0.0969085693359375,0.8097381591796875,-0.0971527099609375
1774158180486036500,20.746036376953125,0.06103515625,0.791015625,0.008270263671875
1774158180506029600,20.766029541015627,0.26007080078125,0.759613037109375,0.1033782958984375
1774158180526021400,20.786021484375,0.03997802734375,0.7080230712890625,0.0317535400390625
1774158180546014500,20.806014404296874,-0.01690673828125,0.683807373046875,-0.102264404296875
1774158180566006500,20.826006591796876,-0.043914794921875,0.6489715576171875,-0.1681365966796875
1774158180585999600,20.84599951171875,-0.0953521728515625,0.6669158935546875,-0.1953887939453125
1774158180605991700,20.86599169921875,-0.0715179443359375,0.737823486328125,-0.2197265625
1774158180625984500,20.885984619140626,-0.0759124755859375,0.7909393310546875,-0.19970703125
1774158180645976600,20.9059765625,0.04180908203125,0.8253936767578125,-0.12744140625
1774158180665969700,20.9259697265625,0.133575439453125,0.93145751953125,-0.0375823974609375
1774158180685961500,20.94596142578125,-0.052490234375,1.009124755859375,-0.0474853515625
1774158180705954600,20.96595458984375,-0.1081085205078125,1.0841064453125,-0.1373138427734375
1774158180725946400,20.9859462890625,0.0182342529296875,1.1421356201171875,-0.146331787109375
1774158180745939500,21.005939453125,-0.022796630859375,1.2508392333984375,-0.048004150390625
1774158180765931500,21.025931640625,-0.2890625,1.45477294921875,-0.0388946533203125
1774158180785924400,21.04592431640625,-0.3036651611328125,1.423370361328125,-0.0730438232421875
1774158180805916700,21.065916748046874,-0.2811279296875,1.1869354248046875,-0.0648193359375
1774158180825909500,21.085909423828124,-0.364898681640625,1.072052001953125,-0.049560546875
1774158180845901600,21.105901611328125,-0.410003662109375,1.1071624755859375,-0.0726776123046875
1774158180865895200,21.125895263671875,-0.403717041015625,1.1819610595703125,-0.08270263671875
1774158180885887200,21.14588720703125,-0.3498992919921875,1.233642578125,-0.05413818359375
1774158180905880300,21.16588037109375,-0.302032470703125,1.30572509765625,-0.0305328369140625
1774158180925872000,21.1858720703125,-0.2451324462890625,1.2236175537109375,-0.003814697265625
1774158180945865200,21.205865234375,-0.2179718017578125,1.14031982421875,-0.0335845947265625
1774158180965857300,21.225857177734376,-0.248443603515625,1.0509185791015625,-0.05242919921875
1774158180985850000,21.24585009765625,-0.242919921875,0.917999267578125,-0.0470428466796875
1774158181005842200,21.26584228515625,-0.2078704833984375,0.8116302490234375,-0.0448455810546875
1774158181025835300,21.285835205078126,-0.1632537841796875,0.735504150390625,-0.049713134765625
1774158181045827000,21.3058271484375,-0.1291961669921875,0.627288818359375,-0.056304931640625
1774158181065820200,21.325820068359373,-0.0921478271484375,0.5156097412109375,-0.0576629638671875
1774158181085812000,21.34581201171875,-0.083526611328125,0.4360504150390625,-0.050689697265625
1774158181105804300,21.36580419921875,-0.1148529052734375,0.424285888671875,-0.032501220703125
1774158181125797400,21.38579736328125,-0.12615966796875,0.4833221435546875,-0.0238494873046875
1774158181145789200,21.4057890625,-0.1455078125,0.6286163330078125,-0.046112060546875
1774158181165782300,21.4257822265625,-0.1781768798828125,0.7806396484375,-0.0639190673828125
1774158181185774000,21.445774169921876,-0.1888580322265625,0.933502197265625,-0.0913238525390625
1774158181205767200,21.46576708984375,-0.165252685546875,0.982391357421875,-0.110687255859375
1774158181225759200,21.48575927734375,-0.162078857421875,1.091796875,-0.1374359130859375
1774158181245752000,21.505751953125,-0.173614501953125,1.3096923828125,-0.1860198974609375
1774158181265744100,21.525744140625,-0.2019805908203125,1.524627685546875,-0.1764678955078125
1774158181285737200,21.5457373046875,-0.198822021484375,1.51763916015625,-0.07550048828125
1774158181305729000,21.56572900390625,-0.029449462890625,1.5631103515625,-0.031219482421875
1774158181325722000,21.58572216796875,0.4343414306640625,1.4564666748046875,0.039520263671875
1774158181345714200,21.605714111328126,-0.2463836669921875,1.179168701171875,-0.10089111328125
1774158181365707300,21.625707275390624,-0.2644500732421875,1.0443572998046875,-0.219573974609375
1774158181385699300,21.64569921875,-0.132598876953125,0.91351318359375,-0.266876220703125
1774158181405692200,21.665692138671876,-0.071533203125,1.0113067626953125,-0.334747314453125
1774158181425684200,21.685684326171874,-0.18988037109375,1.13421630859375,-0.4051055908203125
1774158181445677300,21.70567724609375,-0.3573150634765625,1.1757049560546875,-0.467254638671875
1774158181465669000,21.725669189453125,-0.4633636474609375,1.16729736328125,-0.4903411865234375
1774158181485662200,21.745662109375,-0.419219970703125,1.0177459716796875,-0.451263427734375
1774158181505654000,21.765654052734376,-0.264373779296875,0.828857421875,-0.3335418701171875
1774158181525647000,21.785647216796875,-0.17901611328125,0.7547760009765625,-0.222625732421875
1774158181545639200,21.80563916015625,-0.1623077392578125,0.69305419921875,-0.128082275390625
1774158181565632000,21.825632080078126,-0.1361846923828125,0.634002685546875,-0.0603179931640625
1774158181585624300,21.845624267578124,-0.1116943359375,0.6238250732421875,-0.021331787109375
1774158181605617400,21.865617431640626,-0.0800018310546875,0.6391143798828125,-0.0171661376953125
1774158181625609200,21.885609130859375,-0.0348663330078125,0.653106689453125,-0.026519775390625
1774158181645602300,21.905602294921874,0.0390625,0.6891326904296875,-0.0177154541015625
1774158181665594000,21.925593994140623,0.0605316162109375,0.723785400390625,-0.0394744873046875
1774158181685587200,21.945587158203125,0.27130126953125,0.707794189453125,-0.1227874755859375
1774158181705579300,21.965579345703127,0.102508544921875,0.727752685546875,-0.1856842041015625
1774158181725572000,21.985572021484376,-0.042327880859375,0.7683868408203125,-0.211029052734375
1774158181745564200,22.005564208984374,0.0327606201171875,0.8292694091796875,-0.219879150390625
1774158181765557200,22.02555712890625,-0.0514678955078125,0.9673004150390625,-0.1739044189453125
1774158181785549000,22.045549072265626,-0.205413818359375,1.13287353515625,-0.1280364990234375
1774158181805541400,22.065541259765624,-0.2162628173828125,1.3022308349609375,-0.122039794921875
1774158181825534200,22.0855341796875,-0.05035400390625,1.4508056640625,-0.1306304931640625
1774158181845526300,22.1055263671875,0.108734130859375,1.578369140625,-0.1013946533203125
1774158181865518600,22.1255185546875,-0.2617950439453125,1.5872955322265625,-0.0203094482421875
1774158181885510700,22.1455107421875,-0.4482879638671875,1.4053955078125,-0.04827880859375
1774158181905503500,22.16550341796875,-0.2249755859375,1.15863037109375,-0.1352691650390625
1774158181925495600,22.18549560546875,-0.25067138671875,1.0528717041015625,-0.13970947265625
1774158181945488400,22.20548828125,-0.54779052734375,0.981536865234375,-0.061187744140625
1774158181965480400,22.22548046875,-0.54510498046875,1.015960693359375,0.0660858154296875
1774158181985473500,22.2454736328125,-0.4346466064453125,1.1819305419921875,0.183013916015625
1774158182005465600,22.265465576171874,-0.2808380126953125,1.3346405029296875,0.242279052734375
1774158182025458700,22.285458740234375,-0.0743255615234375,1.1592559814453125,0.155792236328125
1774158182045450800,22.30545068359375,-0.098114013671875,0.912109375,0.0222015380859375
1774158182065443600,22.325443603515627,-0.2216033935546875,0.7959442138671875,-0.0242156982421875
1774158182085435600,22.345435546875,-0.162353515625,0.7546844482421875,-0.0487518310546875
1774158182105428500,22.365428466796875,-0.01654052734375,0.7342529296875,-0.0763702392578125
1774158182125420500,22.385420654296876,0.147674560546875,0.6509857177734375,-0.0913848876953125
1774158182145413600,22.40541357421875,-0.0859527587890625,0.590423583984375,-0.0771026611328125
1774158182165405400,22.425405517578124,-0.080230712890625,0.4724884033203125,-0.0211029052734375
1774158182185398500,22.4453984375,-0.05047607421875,0.50506591796875,0.0038909912109375
1774158182205390300,22.465390380859375,-0.097747802734375,0.623992919921875,0.019866943359375
1774158182225383400,22.485383544921874,-0.1279449462890625,0.669281005859375,0.0288848876953125
1774158182245375700,22.505375732421875,-0.124176025390625,0.7313690185546875,0.0744476318359375
1774158182265368600,22.52536865234375,-0.1376190185546875,0.88470458984375,0.12030029296875
1774158182285360600,22.545360595703126,-0.1215667724609375,1.058624267578125,0.118408203125
1774158182305353700,22.565353759765625,-0.116668701171875,1.189971923828125,0.05743408203125
1774158182325345500,22.585345458984374,-0.1402130126953125,1.2902984619140625,0.015411376953125
1774158182345338600,22.605338623046876,-0.188018798828125,1.388763427734375,0.0784149169921875
1774158182365330400,22.625330322265626,-0.11334228515625,1.4642181396484375,0.179443359375
1774158182385323500,22.645323486328124,-0.014434814453125,1.4781951904296875,0.22198486328125
1774158182405315600,22.665315673828125,-0.1529693603515625,1.4597930908203125,0.0738372802734375
1774158182425308400,22.685308349609375,-0.1409759521484375,1.43511962890625,-0.151947021484375
1774158182445300500,22.705300537109373,-0.2956085205078125,1.1952362060546875,-0.2904205322265625
1774158182465292500,22.72529248046875,-0.3862457275390625,0.95086669921875,-0.2860260009765625
1774158182485285600,22.74528564453125,-0.367218017578125,0.73681640625,-0.320831298828125
1774158182505277700,22.765277587890626,-0.302978515625,0.731353759765625,-0.377685546875
1774158182525270500,22.7852705078125,-0.260467529296875,1.00238037109375,-0.37255859375
1774158182545262600,22.8052626953125,-0.2008209228515625,1.2479248046875,-0.2652435302734375
1774158182565255700,22.825255615234376,-0.19427490234375,1.30889892578125,-0.1476593017578125
1774158182585247500,22.84524755859375,-0.1658935546875,1.1790618896484375,-0.057647705078125
1774158182605240600,22.865240478515624,-0.1422271728515625,1.040802001953125,-0.03509521484375
1774158182625232400,22.885232421875,-0.1126708984375,0.9224090576171875,-0.0164337158203125
1774158182645225500,22.9052255859375,-0.096343994140625,0.8104095458984375,0.0221710205078125
1774158182665217500,22.925217529296877,-0.07159423828125,0.692657470703125,0.0699310302734375
1774158182685210400,22.94521044921875,-0.0485382080078125,0.6008758544921875,0.084320068359375
1774158182705202700,22.96520263671875,-0.0508270263671875,0.5392913818359375,0.0480804443359375
1774158182725195500,22.985195556640626,-0.05889892578125,0.4806060791015625,0.0123138427734375
1774158182745187600,23.0051875,-0.06512451171875,0.4729766845703125,-0.0023040771484375
1774158182765180700,23.0251806640625,-0.016815185546875,0.574920654296875,-0.041900634765625
1774158182785172500,23.04517236328125,0.029205322265625,0.7488861083984375,-0.0293121337890625
1774158182805165600,23.06516552734375,0.018585205078125,0.87567138671875,-0.0592498779296875
1774158182825157600,23.08515771484375,0.0155029296875,0.9482574462890625,-0.0873565673828125
1774158182845150500,23.105150390625,0.00677490234375,1.0265045166015625,-0.0415802001953125
1774158182865142500,23.125142578125,-0.050079345703125,1.19439697265625,0.017852783203125
1774158182885135600,23.145135498046876,-0.1398773193359375,1.4016265869140625,0.0225372314453125
1774158182905127700,23.165127685546874,-0.1655426025390625,1.5025787353515625,-0.0423126220703125
1774158182925120500,23.18512060546875,-0.1141204833984375,1.4031524658203125,-0.007415771484375
1774158182945112800,23.20511279296875,-0.1321563720703125,1.54730224609375,0.1151580810546875
1774158182965105700,23.225105712890624,-0.2414398193359375,1.3822784423828125,-0.09808349609375
1774158182985097700,23.24509765625,-0.374542236328125,1.1457061767578125,-0.13568115234375
1774158183005090800,23.2650908203125,-0.476654052734375,0.9128875732421875,-0.050750732421875
1774158183025082600,23.28508251953125,-0.4786376953125,0.9021453857421875,0.0481414794921875
1774158183045075700,23.30507568359375,-0.4793701171875,1.0490875244140625,0.13134765625
1774158183065067800,23.32506787109375,-0.4864959716796875,1.183929443359375,0.13995361328125
1774158183085060600,23.345060546875,-0.44329833984375,1.1822509765625,0.09716796875
1774158183105052700,23.365052734375,-0.362152099609375,1.054595947265625,-0.0017547607421875
1774158183125044500,23.38504443359375,-0.2541961669921875,0.954315185546875,-0.0531768798828125
1774158183145037600,23.40503759765625,-0.0260467529296875,0.8603057861328125,-0.0139007568359375
1774158183165030000,23.42502978515625,0.0430145263671875,0.789398193359375,0.0617218017578125
1774158183185022700,23.445022705078124,-0.20452880859375,0.716461181640625,0.0003662109375
1774158183205014800,23.465014892578125,-0.2447052001953125,0.693939208984375,-0.003814697265625
1774158183225007900,23.4850078125,-0.0994415283203125,0.6493377685546875,-0.0174713134765625
1774158183244999700,23.504999755859377,-0.0448455810546875,0.667205810546875,-0.0274200439453125
1774158183264992800,23.52499267578125,-0.1195220947265625,0.643798828125,-0.01483154296875
1774158183284984600,23.544984619140624,-0.1459197998046875,0.6326446533203125,0.032135009765625
1774158183304977700,23.564977783203126,-0.153289794921875,0.7116241455078125,0.089813232421875
1774158183324969700,23.5849697265625,-0.091827392578125,0.7528533935546875,0.0772552490234375
1774158183344962600,23.604962646484374,-0.1729736328125,0.8899078369140625,0.052581787109375
1774158183364954600,23.62495458984375,-0.1576995849609375,0.9566497802734375,0.0200042724609375
1774158183384947500,23.644947509765625,-0.2415618896484375,1.0378570556640625,-0.005096435546875
1774158183404939800,23.664939697265623,-0.1439208984375,1.122528076171875,0.0001373291015625
1774158183424932600,23.6849326171875,-0.1412353515625,1.1787567138671875,0.0584716796875
1774158183444924700,23.704924560546875,-0.163177490234375,1.28924560546875,0.161773681640625
1774158183464917800,23.724917724609377,-0.1866912841796875,1.2765045166015625,0.1830291748046875
1774158183484909600,23.74490966796875,-0.2764129638671875,1.2808685302734375,-0.007965087890625
1774158183504902700,23.764902587890624,-0.0658416748046875,1.4713592529296875,-0.1123046875
1774158183524894700,23.784894775390626,-0.1997222900390625,1.3032684326171875,-0.3382720947265625
1774158183544887600,23.804887451171876,-0.4153289794921875,1.02056884765625,-0.517578125
1774158183564879600,23.824879638671874,-0.2962799072265625,0.88238525390625,-0.4646148681640625
1774158183584872700,23.844872802734375,-0.2344970703125,0.825347900390625,-0.4192962646484375
1774158183604864500,23.864864501953125,-0.1940460205078125,1.015350341796875,-0.34600830078125
1774158183624857600,23.884857666015623,-0.273956298828125,1.1695556640625,-0.2972869873046875
1774158183644849700,23.904849609375,-0.2552947998046875,1.2176666259765625,-0.2321319580078125
1774158183664842500,23.924842529296875,-0.169525146484375,1.24560546875,-0.1369171142578125
1774158183684834800,23.944834716796876,-0.083038330078125,1.1480255126953125,-0.054901123046875
1774158183704826600,23.96482666015625,-0.0747833251953125,0.998931884765625,-0.028656005859375
1774158183724819700,23.98481982421875,-0.0691986083984375,0.8480224609375,-0.049041748046875
1774158183744811500,24.0048115234375,-0.054412841796875,0.678253173828125,-0.0665435791015625
1774158183764804600,24.0248046875,-0.0518646240234375,0.5504608154296875,-0.03448486328125
1774158183784796700,24.044796630859373,-0.06890869140625,0.502471923828125,-0.008758544921875
1774158183804789500,24.06478955078125,-0.0262603759765625,0.454803466796875,-0.0057830810546875
1774158183824781600,24.084781494140625,-0.0158233642578125,0.4886474609375,0.0012054443359375
1774158183844774700,24.104774658203127,-0.023834228515625,0.595672607421875,0.00408935546875
1774158183864767500,24.124767578125,-0.0117034912109375,0.7303314208984375,0.0192108154296875
1774158183884760300,24.14476025390625,0.030242919921875,0.833099365234375,-0.0098114013671875
1774158183904752400,24.16475244140625,0.0707244873046875,0.8979339599609375,-0.092437744140625
1774158183924745500,24.184745361328126,0.0294647216796875,0.9400787353515625,-0.1106719970703125
1774158183944737500,24.204737548828124,0.0107879638671875,1.0336761474609375,-0.03131103515625
1774158183964730600,24.224730712890626,-0.0456085205078125,1.2051849365234375,0.0352020263671875
1774158183984722400,24.244722412109375,-0.1290435791015625,1.3464813232421875,0.0192718505859375
1774158184004715500,24.264715576171874,-0.02813720703125,1.516387939453125,-0.0063629150390625
1774158184024707600,24.28470751953125,0.0908203125,1.51898193359375,0.05413818359375
1774158184044700400,24.304700439453125,-0.16461181640625,1.556488037109375,0.220977783203125
1774158184064692500,24.3246923828125,-0.3168487548828125,1.440521240234375,0.093780517578125
1774158184084685600,24.344685546875,-0.35595703125,1.278900146484375,-0.116424560546875
1774158184104677400,24.364677490234374,-0.418609619140625,1.0018157958984375,-0.23590087890625
1774158184124670500,24.38467041015625,-0.4513397216796875,0.809661865234375,-0.208251953125
1774158184144662300,24.404662353515626,-0.47393798828125,0.9060821533203125,-0.0912628173828125
1774158184164655400,24.4246552734375,-0.461456298828125,1.086151123046875,0.02349853515625
1774158184184647700,24.444647705078125,-0.369873046875,1.22796630859375,0.1134490966796875
1774158184204640500,24.464640625,-0.1436309814453125,1.2144622802734375,0.0875396728515625
1774158184224632600,24.484632568359373,-0.18804931640625,1.045562744140625,-0.0183868408203125
1774158184244625400,24.50462548828125,-0.1327972412109375,0.900787353515625,-0.0624237060546875
1774158184264617500,24.524617431640625,-0.0151214599609375,0.78594970703125,-0.074127197265625
1774158184284609500,24.544609619140626,-0.08575439453125,0.7232666015625,-0.0727081298828125
1774158184304602400,24.564602294921876,-0.113037109375,0.6468963623046875,-0.0448150634765625
1774158184324594400,24.584594482421874,-0.0687255859375,0.60906982421875,-0.02276611328125
1774158184344587500,24.60458740234375,-0.0793609619140625,0.57861328125,-0.053619384765625
1774158184364579300,24.624579345703125,-0.04852294921875,0.5576629638671875,-0.06915283203125
1774158184384572400,24.644572509765624,-0.0717315673828125,0.573760986328125,-0.0570220947265625
1774158184404564500,24.664564453125,-0.0668487548828125,0.63037109375,0.01348876953125
1774158184424557600,24.6845576171875,-0.0298919677734375,0.7548828125,0.077056884765625
1774158184444549600,24.704549560546877,-0.0099334716796875,0.861328125,0.06488037109375
1774158184464542500,24.72454248046875,-0.06365966796875,0.9592132568359375,0.0203094482421875
1774158184484534500,24.744534423828124,-0.1117401123046875,1.0829925537109375,-0.0048065185546875
1774158184504527400,24.76452734375,-0.1065826416015625,1.198272705078125,0.000518798828125
1774158184524519400,24.78451953125,-0.141082763671875,1.2850341796875,0.034912109375
1774158184544512500,24.804512451171874,-0.09600830078125,1.361907958984375,0.1008453369140625
1774158184564504300,24.82450439453125,-0.0309295654296875,1.4549102783203125,0.1959228515625
1774158184584497400,24.844497314453125,-0.0377655029296875,1.54608154296875,0.11572265625
1774158184604489200,24.8644892578125,-0.0989837646484375,1.579833984375,-0.0827484130859375
1774158184624482300,24.884482421875,-0.1840057373046875,1.2769927978515625,-0.24169921875
1774158184644474600,24.904474609375,-0.337646484375,1.0507354736328125,-0.270782470703125
1774158184664467500,24.924467529296876,-0.30419921875,0.791046142578125,-0.3038330078125
1774158184684459500,24.94445947265625,-0.3197021484375,0.6934814453125,-0.3478851318359375
1774158184704452600,24.96445263671875,-0.3874664306640625,0.885040283203125,-0.3373870849609375
1774158184724444400,24.9844443359375,-0.362518310546875,1.137451171875,-0.283905029296875
1774158184744437500,25.0044375,-0.2694244384765625,1.245697021484375,-0.18902587890625
1774158184764429300,25.02442919921875,-0.1137237548828125,1.204376220703125,-0.0627593994140625
1774158184784422400,25.04442236328125,0.1336822509765625,1.1510467529296875,0.0883941650390625
1774158184804414500,25.06441455078125,-0.0283203125,0.95184326171875,0.029205322265625
1774158184824407300,25.0844072265625,-0.08612060546875,0.7296905517578125,0.0125885009765625
1774158184844399400,25.1043994140625,-0.0522003173828125,0.60467529296875,0.0513763427734375
1774158184864392200,25.12439208984375,-0.0478057861328125,0.5319366455078125,0.07672119140625
1774158184884384500,25.144384521484376,-0.0161895751953125,0.52783203125,0.074981689453125
1774158184904376300,25.164376220703126,0.0090789794921875,0.5746002197265625,-0.00396728515625
1774158184924369400,25.184369384765624,-0.003387451171875,0.641937255859375,-0.0892181396484375
1774158184944361200,25.204361328125,-0.021942138671875,0.71484375,-0.1184844970703125
1774158184964354300,25.224354248046875,-0.0383148193359375,0.78717041015625,-0.1224212646484375
1774158184984346400,25.244346435546873,-0.021026611328125,0.8353118896484375,-0.1228485107421875
1774158185004339200,25.264339111328123,0.0407257080078125,0.854248046875,-0.119415283203125
1774158185024331300,25.284331298828125,0.05828857421875,0.9809417724609375,-0.08062744140625
1774158185044324000,25.304323974609375,-0.046539306640625,1.16485595703125,-0.0595855712890625
1774158185064316200,25.324316162109376,-0.1824798583984375,1.330322265625,-0.06964111328125
1774158185084309200,25.344309326171874,-0.1662139892578125,1.3739013671875,-0.09222412109375
1774158185104301300,25.36430126953125,0.0404052734375,1.4064483642578125,-0.092498779296875
1774158185124294400,25.38429443359375,-0.0113677978515625,1.553924560546875,0.0109405517578125
1774158185144286500,25.404286376953124,-0.2758636474609375,1.458099365234375,-0.0623779296875
1774158185164279300,25.424279296875,-0.4219207763671875,1.2897491455078125,-0.197357177734375
1774158185184271400,25.444271240234375,-0.4456634521484375,1.049957275390625,-0.231719970703125
1774158185204264200,25.46426416015625,-0.4038238525390625,0.8200531005859375,-0.1099853515625
1774158185224256300,25.48425634765625,-0.4533843994140625,0.8252410888671875,0.0592803955078125
1774158185244249300,25.504249267578125,-0.483917236328125,1.05511474609375,0.144927978515625
1774158185264241200,25.5242412109375,-0.375030517578125,1.29254150390625,0.1764068603515625
1774158185284234200,25.544234130859376,-0.196441650390625,1.3513641357421875,0.0997467041015625
1774158185304226000,25.56422607421875,-0.18414306640625,1.165985107421875,-0.04974365234375
1774158185324219100,25.58421923828125,-0.2363433837890625,1.0245361328125,-0.1191253662109375
1774158185344211500,25.60421142578125,-0.1345062255859375,0.9264678955078125,-0.1398162841796875
1774158185364204300,25.624204345703124,-0.048004150390625,0.828094482421875,-0.13592529296875
1774158185384196400,25.6441962890625,-0.0463409423828125,0.699066162109375,-0.092041015625
1774158185404189400,25.664189453125,0.03668212890625,0.6098175048828125,-0.022491455078125
1774158185424181200,25.68418115234375,-0.001983642578125,0.580657958984375,0.0311279296875
1774158185444174300,25.70417431640625,-0.060333251953125,0.54827880859375,0.0167694091796875
1774158185464166100,25.724166259765624,-0.094512939453125,0.568603515625,0.0156097412109375
1774158185484158200,25.744158203125,-0.1468505859375,0.607635498046875,0.054168701171875
1774158185504151300,25.7641513671875,-0.1312408447265625,0.707427978515625,0.1151580810546875
