time,seconds_elapsed,z,y,x
1774158159798745600,0.05874560546875,-9.462700368973612,-2.5688185146108267,-0.16988310393095016
1774158159818738400,0.078738525390625,-9.464448089423776,-2.5617431693971158,-0.1791180383313447
1774158159838731500,0.0987314453125,-9.46343277490139,-2.5640397559016943,-0.19880331080388278
1774158159858721500,0.118721435546875,-9.458633850187063,-2.579194947196543,-0.22887076974948867
1774158159878714600,0.138714599609375,-9.451453583294153,-2.601442727100849,-0.27001749405423175
1774158159898707500,0.15870751953125,-9.444975327190756,-2.617502173759043,-0.3339205140409991
1774158159918699500,0.178699462890625,-9.443451478624343,-2.6074989583998915,-0.4388105925250798
1774158159938692400,0.1986923828125,-9.44903541623652,-2.5582500665843484,-0.5843562142634764
1774158159958684400,0.218684326171875,-9.453530974090098,-2.494904552616179,-0.7593366048008203
1774158159978677500,0.238677490234375,-9.444491927587986,-2.4599904756233095,-0.9593778964344412
1774158159998670300,0.25867041015625,-9.408754843774437,-2.512530517938733,-1.1545161453921347
1774158160018662400,0.278662353515625,-9.342047452157736,-2.6705191859364508,-1.328479139047861
1774158160038655500,0.298655517578125,-9.253696384009718,-2.88632057595551,-1.4861508500508964
1774158160058648300,0.3186484375,-9.159070473375916,-3.091241675519943,-1.6510728244431316
1774158160078640400,0.338640380859375,-9.06922536727786,-3.2506092306554315,-1.8311406377799808
1774158160098633500,0.358633544921875,-8.993127631503343,-3.3458179096132517,-2.024733703122288
1774158160118626300,0.378626220703125,-8.943383065125346,-3.3632363696649668,-2.2079235940024255
1774158160138618400,0.398618408203125,-8.924527558007837,-3.2941163639485835,-2.381593084604293
1774158160158611500,0.418611572265625,-8.925714137443899,-3.1522993708118796,-2.5622300761312244
1774158160178603500,0.438603515625,-8.934618159389496,-2.970327477419376,-2.7422882448568937
1774158160198596400,0.458596435546875,-8.941607872146367,-2.7899901994913816,-2.904133003760874
1774158160218589400,0.47858935546875,-8.94434635719955,-2.64160376483649,-3.0316634051308036
1774158160238581500,0.49858154296875,-8.934477289614081,-2.5360478793874384,-3.1486443554356693
1774158160258574600,0.51857470703125,-8.90749049848914,-2.472278002527356,-3.273352100600302
1774158160278567700,0.538567626953125,-8.871904221323131,-2.431147973629087,-3.398414066030085
1774158160298559500,0.5585595703125,-8.834353950607776,-2.3950578385941683,-3.5196976819649337
1774158160318552600,0.578552490234375,-8.797917778614163,-2.378358194336295,-3.6208337051451203
1774158160338545700,0.598545654296875,-8.765998207262157,-2.3837137300200757,-3.693991295814514
1774158160358537500,0.618537353515625,-8.736530120715498,-2.3887176757872104,-3.7599797255069016
1774158160378530600,0.638530517578125,-8.707727220079303,-2.3861644841730594,-3.827805307498574
1774158160398522400,0.6585224609375,-8.67216432378888,-2.397444149208814,-3.900796601690352
1774158160418515500,0.678515380859375,-8.62768629963696,-2.43436868924126,-3.975834599278867
1774158160438508500,0.698508544921875,-8.582916014540196,-2.4929987189948557,-4.035950337545573
1774158160458500400,0.718500244140625,-8.544959501111506,-2.5596745464295148,-4.074569698797166
1774158160478493400,0.738493408203125,-8.516115683943033,-2.6234669273823497,-4.094335598757863
1774158160498486500,0.758486572265625,-8.49357359726727,-2.6872806433841583,-4.099770191027224
1774158160518478300,0.778478271484375,-8.471606095609069,-2.7532217268034813,-4.1014685193777085
1774158160538471400,0.798471435546875,-8.449031860229372,-2.8182711220800876,-4.103851322861016
1774158160558463200,0.818463134765625,-8.427468263196944,-2.872143874303996,-4.110833436833322
1774158160578456300,0.838456298828125,-8.411576866582035,-2.9085759546443817,-4.117760898008942
1774158160598449400,0.858449462890625,-8.404232933560014,-2.925283928339183,-4.1209181929960845
1774158160618441200,0.878441162109375,-8.400644553679227,-2.9379949413523074,-4.1191915153339504
1774158160638434300,0.898434326171875,-8.39797270412147,-2.9670450947478413,-4.103789363540709
1774158160658427400,0.918427490234375,-8.401336627596617,-3.0165298411458727,-4.0606005024164915
1774158160678419500,0.93841943359375,-8.41895411735177,-3.072875120963156,-3.9810841903701424
1774158160698412500,0.95841259765625,-8.447410981029272,-3.124155518606305,-3.879598623099923
1774158160718405400,0.9784052734375,-8.474850192096829,-3.1652175968348977,-3.7853266404703256
1774158160738397400,0.9983974609375,-8.491683837997913,-3.1961908272475004,-3.7210274790391322
1774158160758390500,1.018390625,-8.493893330740928,-3.219091518102586,-3.696161917851865
1774158160778382600,1.038382568359375,-8.488952367207407,-3.235024123510718,-3.693601419714093
1774158160798375400,1.05837548828125,-8.481775607445835,-3.2468928404808044,-3.6996690491899846
1774158160818368500,1.078368408203125,-8.469857790637016,-3.260747178310156,-3.7147584817722437
1774158160838360600,1.098360595703125,-8.456557579559087,-3.2770512473791835,-3.730677643176913
1774158160858354200,1.118354248046875,-8.450630527597665,-3.289229176428914,-3.7333907015278935
1774158160878347300,1.13834716796875,-8.456922905740141,-3.2876050823584198,-3.7205493401333687
1774158160898339000,1.158339111328125,-8.465432375410199,-3.2764673100113866,-3.711010819676518
1774158160918332200,1.178332275390625,-8.465058281400799,-3.270356718176603,-3.717249421805143
1774158160938324000,1.198323974609375,-8.45362620228231,-3.271720700006187,-3.741981419740617
1774158160958317000,1.218317138671875,-8.438810325944424,-3.279639510306716,-3.7683985942840574
1774158160978310100,1.23831005859375,-8.429395431867242,-3.2906083558276293,-3.7798908791571852
1774158160998302000,1.258302001953125,-8.426463470068574,-3.305365487715602,-3.7735473553493617
1774158161018295000,1.278294921875,-8.426798985633253,-3.3255995897099373,-3.7549741723045704
1774158161038288100,1.2982880859375,-8.430346448981762,-3.3414746197119354,-3.7328526491284366
1774158161058280000,1.318280029296875,-8.435344111138582,-3.342553939381242,-3.7205756436184045
1774158161078273000,1.33827294921875,-8.439502984383703,-3.3400963170960543,-3.7133451078429816
1774158161098265000,1.35826513671875,-8.446403265291451,-3.3500048399090767,-3.688648473481834
1774158161118258000,1.3782578125,-8.456500880935788,-3.3690564541205763,-3.6479365238651633
1774158161138251000,1.3982509765625,-8.466077103054523,-3.3856808411851524,-3.6101375390857458
1774158161158243000,1.4182431640625,-8.471606095609069,-3.398435985600948,-3.5850960368096825
1774158161178236000,1.43823583984375,-8.473826694267988,-3.4036192334577438,-3.5749154190570116
1774158161198229000,1.45822900390625,-8.475403734326362,-3.3953079167082905,-3.5790780916944143
1774158161218221300,1.47822119140625,-8.476818861821293,-3.3772301159650087,-3.592805003751814
1774158161238214000,1.4982138671875,-8.48232447350025,-3.354173942287266,-3.601398936834931
1774158161258207000,1.51820703125,-8.494948392751812,-3.3256624258130785,-3.5980826518937943
1774158161278199000,1.538198974609375,-8.506395084917544,-3.2955610097989436,-3.598736147366464
1774158161298192100,1.558192138671875,-8.506320850637554,-3.266063404896855,-3.625703941529989
1774158161318184200,1.57818408203125,-8.497197048461437,-3.2408404085740443,-3.669466218627989
1774158161338177000,1.598177001953125,-8.489510001090169,-3.225221691420674,-3.700884270198643
1774158161358170000,1.618170166015625,-8.488159755524993,-3.219312467376888,-3.709118137797713
1774158161378162200,1.638162109375,-8.487969785910844,-3.2143051606088875,-3.7138930971145627
1774158161398155000,1.658155029296875,-8.482243224957585,-3.206071877531707,-3.734038351781666
1774158161418148000,1.678148193359375,-8.47197726700902,-3.198444159132242,-3.7637668428301807
1774158161438140200,1.69814013671875,-8.463961133813857,-3.193476015330851,-3.7859552937626835
1774158161458133000,1.718133056640625,-8.459172730493545,-3.191517867000401,-3.7982887056350707
1774158161478125000,1.738125,-8.458867025545239,-3.1883000739976763,-3.8016698725059626
1774158161498118100,1.7581181640625,-8.461615447470546,-3.181459706583619,-3.8012840880587695
1774158161518111000,1.778111083984375,-8.465367493480443,-3.168889855606854,-3.803429867915809
1774158161538103000,1.79810302734375,-8.472326226577163,-3.1512104065313933,-3.802623812229931
1774158161558096100,1.81809619140625,-8.481758656311035,-3.13157806982249,-3.797810858990252
1774158161578089000,1.8380888671875,-8.489625736424326,-3.1071663898825643,-3.800283094322681
1774158161598081000,1.8580810546875,-8.492107031846047,-3.078215897469222,-3.8182577269524334
1774158161618074000,1.87807421875,-8.489403618106245,-3.059950465199351,-3.8388939800068735
1774158161638066200,1.898066162109375,-8.484924426865577,-3.0644854782804845,-3.8451755444943903
1774158161658059000,1.91805908203125,-8.478002518647909,-3.0769825562819837,-3.850459037855267
1774158161678052000,1.938052001953125,-8.464134736815094,-3.0816622385308143,-3.8771339865520593
1774158161698044200,1.958044189453125,-8.441728259217738,-3.0825369755387304,-3.9249934698358175
1774158161718037200,1.978037353515625,-8.419577217686175,-3.080238343207538,-3.974070219954848
1774158161738030000,1.998030029296875,-8.403284254533052,-3.069889383150637,-4.016338751363754
1774158161758022100,2.018022216796875,-8.395794191038608,-3.0476296205475926,-4.048824724426865
1774158161778015200,2.03801513671875,-8.40084679825306,-3.012682518067956,-4.064467991499603
1774158161798007000,2.058007080078125,-8.414899873524904,-2.977909018589556,-4.0610228194817894
1774158161818000100,2.078000244140625,-8.428862932425737,-2.9544442641109225,-4.049187420259416
1774158161837993200,2.0979931640625,-8.431415539517998,-2.947032234288752,-4.04927392949909
1774158161857984500,2.117984619140625,-8.421162441051006,-2.95373991523385,-4.065689934509992
1774158161877977600,2.1379775390625,-8.405933307737111,-2.9602263546437024,-4.092398493215441
1774158161897970700,2.157970703125,-8.39651782913804,-2.9548724263951183,-4.115531239260733
1774158161917962500,2.17796240234375,-8.399372049525379,-2.937698296493292,-4.12199809718728
1774158161937955600,2.19795556640625,-8.403756548219919,-2.9135014283478258,-4.1302264118283984
1774158161957948700,2.21794873046875,-8.396727672496437,-2.8884678171172737,-4.161982609312236
1774158161977940500,2.2379404296875,-8.37917331110537,-2.870018844974041,-4.209848814597725
1774158161997933600,2.25793359375,-8.35086316242218,-2.8532117948189377,-4.2769913827613
1774158162017925600,2.277925537109375,-8.308362575823068,-2.8296269210919736,-4.37432362974435
1774158162037918500,2.29791845703125,-8.260282727786898,-2.8029689235299826,-4.481236190499365
1774158162057911600,2.31791162109375,-8.225742744803428,-2.779884692801535,-4.55848455761373
1774158162077904000,2.33790380859375,-8.216887238174676,-2.7612542266115545,-4.585698435492813
1774158162097896400,2.357896484375,-8.225434701767563,-2.7403181138277053,-4.5829316011279815
1774158162117889500,2.3778896484375,-8.23498754301071,-2.7173805980935692,-4.579433529879153
1774158162137881900,2.3978818359375,-8.235133673483134,-2.7077377404794096,-4.584879228064418
1774158162157874700,2.417874755859375,-8.224102576380968,-2.7166747879117725,-4.599368648926913
1774158162177866800,2.43786669921875,-8.211542954537272,-2.7268258873090145,-4.615774132543802
1774158162197859800,2.45785986328125,-8.197797922301293,-2.73113352137506,-4.637608070950209
1774158162217852700,2.477852783203125,-8.17505008392036,-2.737151758751273,-4.674071423211694
1774158162237844700,2.4978447265625,-8.140355787158011,-2.7469474688395854,-4.7285596769854426
1774158162257837800,2.517837890625,-8.09554400100708,-2.7602818744480606,-4.797227847281098
1774158162277830700,2.53783056640625,-8.04789377655983,-2.782584599409997,-4.8640527277976275
1774158162297822700,2.55782275390625,-8.007924169743061,-2.8157220221191643,-4.910727385210991
1774158162317815600,2.577815673828125,-7.9754849584311245,-2.8623008179426193,-4.936522336202859
1774158162337807600,2.5978076171875,-7.9450921582549805,-2.9066800578951835,-4.959546653437614
1774158162357800700,2.61780078125,-7.924785867807269,-2.918189586164057,-4.985210671526193
1774158162377793500,2.63779345703125,-7.915013246333599,-2.8783243165045973,-5.023763981804251
1774158162397785600,2.65778564453125,-7.917896692815423,-2.7785262639299035,-5.0751446249514816
1774158162417778700,2.67777880859375,-7.9223156783014534,-2.6231317040786144,-5.150385451635718
1774158162437771500,2.697771484375,-7.940483787676691,-2.429819209243357,-5.216807596570253
1774158162457763600,2.717763671875,-7.967908385697006,-2.230184671779722,-5.263943441754579
1774158162477756700,2.737756591796875,-8.008805628752707,-2.086131736284494,-5.260938414719701
1774158162497748700,2.757748779296875,-8.06922707196772,-2.02036557104066,-5.193850499352813
1774158162517741600,2.777741455078125,-8.14368171671033,-2.005679312431812,-5.082134337708354
1774158162537734700,2.797734619140625,-8.201637646594643,-1.9972636585250496,-4.9914387522608035
1774158162557726700,2.817726806640625,-8.223263202947377,-1.9877901661284267,-4.959537885609269
1774158162577719800,2.8377197265625,-8.221682071235776,-1.9764329058118164,-4.966693018060922
1774158162597712600,2.857712646484375,-8.228959953284264,-1.9630562684968114,-4.959940621191263
1774158162617704700,2.87770458984375,-8.25928962509632,-1.9638507798753677,-4.908951023188233
1774158162637697800,2.89769775390625,-8.31768336187601,-1.97558228033185,-4.8045399238601325
1774158162657689600,2.917689697265625,-8.399245208275318,-1.972880035635829,-4.661632212877273
1774158162677682700,2.9376826171875,-8.487496323180197,-1.9270194710843265,-4.518782077300548
1774158162697675800,2.95767578125,-8.569620479637384,-1.8311295318640768,-4.402154178217053
1774158162717667600,2.97766748046875,-8.630966051959991,-1.700602871287614,-4.334138042089343
1774158162737660700,2.99766064453125,-8.677612652322649,-1.5516560262709855,-4.296718119755387
1774158162757653800,3.01765380859375,-8.724695890536903,-1.398058140578121,-4.253880264025926
1774158162777645600,3.0376455078125,-8.773249785825609,-1.2589091976068914,-4.197096885052323
1774158162797638700,3.057638671875,-8.808035852524638,-1.1578060537829995,-4.153116289028525
1774158162817630700,3.077630615234375,-8.834705248263477,-1.0798021921262144,-4.117328644071519
1774158162837623600,3.09762353515625,-8.865739853474498,-1.0125899197272956,-4.067394984862208
1774158162857616600,3.11761669921875,-8.901588580968976,-0.9564944499526172,-4.002152112840116
1774158162877608400,3.1376083984375,-8.932811402228474,-0.9090708008028566,-3.9432036647871134
1774158162897601500,3.1576015625,-8.962495177352428,-0.8631807909611612,-3.8857410713776943
1774158162917594600,3.1775947265625,-8.991396277666091,-0.7941267631530762,-3.8333459904909133
1774158162937586400,3.19758642578125,-9.017632542684673,-0.7008869731154292,-3.7896503488883373
1774158162957579500,3.21757958984375,-9.038289546266197,-0.6110440589744597,-3.7558395569622514
1774158162977571800,3.23757177734375,-9.053594082903862,-0.5523882006598636,-3.72796020091176
1774158162997564700,3.257564697265625,-9.071375238788127,-0.5285261904919519,-3.687979780440032
1774158163017557500,3.2775576171875,-9.097486416122317,-0.5448238298201933,-3.620675299713015
1774158163037549800,3.2975498046875,-9.141406806391476,-0.6361232629124075,-3.492909336021542
1774158163057542700,3.317542724609375,-9.17392901981175,-0.7929239632345736,-3.3735262930110097
1774158163077535700,3.33753564453125,-9.177025816783308,-0.9616698067639022,-3.3208097250849007
1774158163097527800,3.35752783203125,-9.164197314870357,-1.1148263053648173,-3.3083275523915887
1774158163117520600,3.377520751953125,-9.152654176592826,-1.229704876562953,-3.2995658615261316
1774158163137512700,3.3975126953125,-9.140202106776833,-1.3040017003953457,-3.3055507811546323
1774158163157505800,3.417505859375,-9.131826492619513,-1.361807846545428,-3.305391498939693
1774158163177498600,3.43749853515625,-9.136027451440691,-1.4103237479113042,-3.2732819579735395
1774158163197490700,3.45749072265625,-9.147474728128314,-1.428446995231509,-3.233207721738517
1774158163217483800,3.47748388671875,-9.165896520003676,-1.3996671832099556,-3.193376938870549
1774158163237476600,3.4974765625,-9.197316909661888,-1.3326567169934511,-3.1310975928291676
1774158163257468700,3.51746875,-9.226801947343349,-1.241883390134573,-3.0812723624303935
1774158163277461800,3.537461669921875,-9.234662597715854,-1.1488155956629662,-3.093802758179605
1774158163297453600,3.55745361328125,-9.230705969044566,-1.0620580072514711,-3.1363164965212342
1774158163317446700,3.57744677734375,-9.2331977858603,-0.9896589798644184,-3.152621150112152
1774158163337439500,3.597439453125,-9.253256823548673,-0.9417045117735863,-3.108185796058178
1774158163357431600,3.617431640625,-9.274759630304574,-0.9130657156579196,-3.0521354075342413
1774158163377424600,3.637424560546875,-9.281437792894243,-0.9006796237502247,-3.0354689348936077
1774158163397417500,3.65741748046875,-9.276898395898938,-0.9058543229743837,-3.0477807194560764
1774158163417409500,3.677409423828125,-9.260691357463598,-0.9338076210439205,-3.0883634897351264
1774158163437402600,3.697402587890625,-9.236976719877124,-0.9776761349953711,-3.145282185526192
1774158163457394700,3.717394775390625,-9.213443868598342,-1.0321455379381774,-3.196483964975178
1774158163477387800,3.7373876953125,-9.196050835248828,-1.121507755890116,-3.2164033019319174
1774158163497380600,3.757380615234375,-9.174306620952487,-1.270751464961469,-3.222992032672465
1774158163517372700,3.77737255859375,-9.136239632886648,-1.4515790106244384,-3.2546006383791566
1774158163537365800,3.79736572265625,-9.12390855910182,-1.5084537211433051,-3.263318782363832
1774158163557358800,3.81735888671875,-9.125035517305136,-1.4275436166509985,-3.296396291579306
1774158163577350700,3.8373505859375,-9.11745485291779,-1.3735308714345096,-3.3400323119491335
1774158163597343700,3.85734375,-9.084245241755246,-1.389657976501435,-3.4228237001433968
1774158163617335600,3.87733544921875,-9.010074090129136,-1.4683268779382108,-3.5823134203538296
1774158163637328600,3.89732861328125,-8.896324376830458,-1.5592425358772277,-3.820281926256418
1774158163657321700,3.91732177734375,-8.799256333741544,-1.6400211229443549,-4.006719566886127
1774158163677313500,3.9373134765625,-8.71938667821288,-1.7394651013843714,-4.13726317859739
1774158163697306600,3.957306640625,-8.5999355384022,-1.8511599279798565,-4.334131612348556
1774158163717299700,3.9772998046875,-8.424629240378737,-1.9866446493551133,-4.6096907209768885
1774158163737291500,3.99729150390625,-8.223452003517746,-2.1497987372919916,-4.89117425121814
1774158163757284600,4.01728466796875,-8.055596021500229,-2.26466298770383,-5.113614348599314
1774158163777276700,4.037276611328125,-7.9792773364514105,-2.301436721088737,-5.215833198580145
1774158163797269500,4.05726953125,-7.968861156377196,-2.2811007661551237,-5.240631539750098
1774158163817262600,4.0772626953125,-7.914854840901493,-2.271927864140272,-5.32576715298295
1774158163837254700,4.097254638671875,-7.794262129840254,-2.3159772876165805,-5.482344785138964
1774158163857247500,4.11724755859375,-7.652303974667191,-2.3725664591923357,-5.655400089365243
1774158163877239600,4.137239501953125,-7.5112372153759,-2.4234235168568787,-5.820542720770836
1774158163897232600,4.157232666015625,-7.397570504185557,-2.4503172228708863,-5.9533420024543995
1774158163917225500,4.1772255859375,-7.327192315101623,-2.442878012780845,-6.042763330182432
1774158163937217500,4.197217529296875,-7.244054597687721,-2.420280104264617,-6.1511214135706425
1774158163957210600,4.217210693359375,-7.075389637374878,-2.4078512691937384,-6.349134048920869
1774158163977203700,4.23720361328125,-6.777914757275581,-2.3808790911160407,-6.67545216166675
1774158163997195500,4.257195556640625,-6.411885980910062,-2.2940784672804178,-7.056579138442873
1774158164017188600,4.277188720703125,-6.058475863099098,-2.157844534973055,-7.4033070020109415
1774158164037180400,4.297180419921875,-5.755320014753937,-1.9914092334084212,-7.686414334061741
1774158164057173500,4.317173583984375,-5.506417150121927,-1.7639302650772035,-7.920752082246541
1774158164077166600,4.33716650390625,-5.261822796338796,-1.4537408648334442,-8.14679371125102
1774158164097158400,4.357158447265625,-4.946694186127186,-1.0932084208618849,-8.396755145025253
1774158164117151500,4.3771513671875,-4.527002208635211,-0.7288955085035413,-8.66864082583785
1774158164137143600,4.3971435546875,-4.098718928408623,-0.34773400840330865,-8.902245583572983
1774158164157136400,4.417136474609375,-3.7453809990510343,0.00587802347545803,-9.063248630955815
1774158164177129500,4.43712939453125,-3.3891160763308403,0.30023126613534984,-9.197507463797926
1774158164197121500,4.45712158203125,-3.026554683814943,0.5675721796577796,-9.31065044337511
1774158164217114400,4.4771142578125,-2.712700039061904,0.8912701365005224,-9.381752855080366
1774158164237107500,4.497107421875,-2.536867086815834,1.3263181616216897,-9.379529918333887
1774158164257099500,4.517099609375,-2.460336220321059,1.844352001530677,-9.312115839752554
1774158164277092400,4.53709228515625,-2.3370193449929357,2.2937118259251115,-9.243786984413862
1774158164297084700,4.557084716796875,-2.1508312952101227,2.6461498838335276,-9.19468422307074
1774158164317077800,4.577077880859375,-1.991520438697934,2.938846005223691,-9.141521372681856
1774158164337070600,4.597070556640625,-1.9393702724829316,3.109745884981751,-9.09608239454329
1774158164357062700,4.617062744140625,-1.986153797098249,3.1543615640386937,-9.070589641368388
1774158164377055700,4.6370556640625,-1.9808694269545375,3.243079711933434,-9.040408438116312
1774158164397048600,4.657048583984375,-1.9595042751036584,3.4275089353501795,-8.97679784347117
1774158164417040600,4.67704052734375,-1.9574685314923523,3.613338965475559,-8.904071045434474
1774158164437033500,4.697033447265625,-1.8426994120180606,3.7065959258437156,-8.890219045692682
1774158164457025500,4.717025634765625,-1.6577863506071269,3.789540458773076,-8.891654631453752
1774158164477018600,4.7370185546875,-1.476579450237751,3.8450165545403956,-8.89977130241394
1774158164497011500,4.757011474609375,-1.2957466438777745,3.8301319968804717,-8.934289658087492
1774158164517003500,4.77700341796875,-1.108859213653952,3.759171331733465,-8.989408318719267
1774158164536996600,4.79699658203125,-0.944909153033793,3.6444328996583817,-9.05514423495531
1774158164556988400,4.816988525390625,-0.8353406709425151,3.475462234397232,-9.132017631277442
1774158164576981500,4.8369814453125,-0.9457393933128565,3.2241207444414495,-9.21309023285508
1774158164596974600,4.856974609375,-1.1664731251675635,3.022415392053127,-9.256065451228618
1774158164616966400,4.87696630859375,-1.166201614749804,2.934871548634767,-9.284227715873717
1774158164636959500,4.89695947265625,-1.0066958201874048,2.9352257688999175,-9.302764074039459
1774158164656952600,4.91695263671875,-0.6742154584847391,3.027750907862186,-9.303146935877203
1774158164676944400,4.9369443359375,-0.31324137169290334,3.1955078134194013,-9.266121565818786
1774158164696937500,4.9569375,-0.14735485398429446,3.4116359511747953,-9.192901431307195
1774158164716929500,4.976929443359375,-0.1246924288644921,3.686089436648786,-9.086671007597445
1774158164736922600,4.996922607421875,-0.09457081944569945,4.041212203596532,-8.934766627949475
1774158164756915500,5.01691552734375,-0.000020217138372800034,4.503608181305229,-8.71136762240827
1774158164776907500,5.036907470703125,0.2222467667661607,5.027433025705814,-8.417001229718327
1774158164796900600,5.056900634765625,0.5198956517254933,5.535352152705192,-8.078364902669191
1774158164816892700,5.076892578125,0.7723534688927233,6.066778996542096,-7.66603147124648
1774158164836885500,5.096885498046875,0.9414432304888963,6.475750842577218,-7.304021282872557
1774158164856878800,5.11687890625,0.9735959530096501,6.592599690935015,-7.194450901085138
1774158164876871000,5.136870849609375,0.9100342390075326,6.545867750376463,-7.245262804433703
1774158164896864000,5.156864013671875,0.8495221218343824,6.5942427819669245,-7.208651860395073
1774158164916856800,5.17685693359375,0.8255434264842421,6.691586134865879,-7.121205632132291
1774158164936849000,5.196848876953125,0.7783592851787805,6.79856240850687,-7.024535063928365
1774158164956841700,5.216841796875,0.7293278355062007,6.882993088340759,-6.947150210952758
1774158164976833800,5.236833740234375,0.6761497875481843,6.904617475649714,-6.9310518935889
1774158164996827000,5.256826904296875,0.5535647336259484,6.886625891885161,-6.9597653623759745
1774158165016819700,5.27681982421875,0.4218098829613998,6.928942354089021,-6.926920492872595
1774158165036811800,5.296811767578125,0.46936957958098496,7.06033469158411,-6.789827897909284
1774158165056804900,5.316804931640625,0.5612725680569186,7.163708556818961,-6.673577599966525
1774158165076797700,5.336797607421875,0.6223007084608078,7.221888943108916,-6.605107874852418
1774158165096789800,5.356789794921875,0.6575733165677636,7.274587098595499,-6.543574671003222
1774158165116782800,5.376782958984375,0.7150664512459188,7.353655959135294,-6.448472959551215
1774158165136774700,5.396774658203125,0.7267510438207536,7.465009132686257,-6.317898952701688
1774158165156767700,5.416767822265625,0.6566421001322567,7.551586761420965,-6.221956698772311
1774158165176760800,5.4367607421875,0.5549283135967329,7.609083257099986,-6.161515381813049
1774158165196753000,5.4567529296875,0.2952626291436143,7.604842550790309,-6.184623285678029
1774158165216745700,5.476745849609375,0.1438570293306373,7.538370136973262,-6.2707800586521625
1774158165236737800,5.49673779296875,0.15363657373543826,7.513284795555472,-6.300581907197833
1774158165256731000,5.51673095703125,0.14096143575329334,7.526307358735799,-6.285317118048668
1774158165276724000,5.536723876953125,0.19471912849647924,7.540902285799383,-6.266360488644242
1774158165296715800,5.5567158203125,0.4150337033573538,7.608475354334711,-6.173269532492757
1774158165316708900,5.576708984375,0.727898679485917,7.70918964497149,-6.017389234951138
1774158165336702000,5.596701904296875,1.1893263966843486,7.809700521990656,-5.8107209994584315
1774158165356693800,5.61669384765625,1.4730525912858545,7.922238521412014,-5.589155639085173
1774158165376686800,5.636686767578125,1.5912240665495394,8.003427442845702,-5.439078474864363
1774158165396679000,5.656678955078125,1.6168270021006463,8.032631325498222,-5.388237345421314
1774158165416671700,5.676671630859375,1.5408201594799755,8.033231044957041,-5.409570640829205
1774158165436664800,5.696664794921875,1.4296410273216664,8.018134598112105,-5.462238985699415
1774158165456657000,5.716656982421875,1.3136037876076996,7.990307264509797,-5.5317070742011065
1774158165476649700,5.736649658203125,1.2543220159471034,7.954278504273295,-5.597009859716892
1774158165496641800,5.756641845703125,1.2490776855528354,7.934701697143912,-5.625896346983313
1774158165516634600,5.776634521484375,1.3141460777908562,7.8938851181089875,-5.668333220696449
1774158165536627700,5.796627685546875,1.378075529126823,7.865384415289759,-5.692715382280945
1774158165556619800,5.816619873046875,1.3447991363383829,7.854414692986011,-5.7157718482196325
1774158165576612600,5.836612548828125,1.2358872184596954,7.801332506617904,-5.812245432546734
1774158165596605000,5.85660498046875,1.0917787533849477,7.729885226997733,-5.935257479709387
1774158165616598000,5.876597900390625,0.9527634467307478,7.639412344390154,-6.074701606234908
1774158165636590600,5.896590576171875,0.8326625377744435,7.54049838117361,-6.214333364287018
1774158165656583000,5.9165830078125,0.7563765128862112,7.417004687973857,-6.370740900573134
1774158165676576000,5.936575927734375,0.6972415292851627,7.254750763747095,-6.561465717002749
1774158165696567800,5.95656787109375,0.6235192904703318,7.172802548378706,-6.658265464544296
1774158165716561000,5.976560791015625,0.5341802341982722,7.194533318671584,-6.642567544674873
1774158165736554000,5.996553955078125,0.3753614720519632,7.264147537645697,-6.577357698139548
1774158165756545800,6.0165458984375,0.23734918669415636,7.292023386564851,-6.552896626099944
1774158165776539000,6.036538818359375,0.20103435779158024,7.316745739889145,-6.526501955649256
1774158165796530700,6.05653076171875,0.19569250357327983,7.321409640046954,-6.521430059212446
1774158165816523800,6.076523681640625,0.18197298937104642,7.334376089125871,-6.507241959384084
1774158165836516900,6.096516845703125,0.1770205911280587,7.377540108069777,-6.458401063847542
1774158165856508700,6.1165087890625,0.14916153808007948,7.426318459764123,-6.402962085220217
1774158165876501800,6.136501708984375,0.12066339254411867,7.524772988775372,-6.287575126108527
1774158165896493600,6.15649365234375,0.0995188337745145,7.571724709564447,-6.231332429882884
1774158165916486700,6.176486572265625,0.01962238613704685,7.608081386581063,-6.1876598768949505
1774158165936479700,6.196479736328125,-0.09102574898367748,7.661251835754514,-6.121057699218392
1774158165956471800,6.216471923828125,-0.25978699101153757,7.7306351685822,-6.028283553931117
1774158165976464600,6.236464599609375,-0.45090909966304893,7.799047026029228,-5.928062015247344
1774158165996457000,6.25645703125,-0.588475413085334,7.823713265252113,-5.883333231204748
1774158166016449800,6.27644970703125,-0.6705017717238515,7.870897625753283,-5.8111780955761665
1774158166036443000,6.29644287109375,-0.7230396220821886,7.932202866065501,-5.720818025693297
1774158166056435000,6.31643505859375,-0.7916746938258409,8.033153888067602,-5.568848179593682
1774158166076427800,6.336427734375,-0.8993279168803244,8.225396707844734,-5.263500958684086
1774158166096419800,6.356419921875,-1.085928054595366,8.558135793548821,-4.663632154522836
1774158166116413000,6.376412841796875,-1.2597257746867834,8.895150072354078,-3.931895504309237
1774158166136404700,6.39640478515625,-1.4778266738198698,9.151568134921789,-3.199256060037017
1774158166156397800,6.416397705078125,-1.6004307247035205,9.319046515798568,-2.600842130859196
1774158166176391000,6.436390869140625,-1.4016598183318971,9.401134431898594,-2.413379238834977
1774158166196382700,6.4563828125,-0.9197128255221992,9.447341471800208,-2.464199325489998
1774158166216375800,6.476375732421875,-0.4969075383152812,9.470495552894473,-2.496635029670596
1774158166236367600,6.49636767578125,-0.21435462527684865,9.489335277920961,-2.4651450819075107
1774158166256360700,6.516360595703125,-0.14657001461638136,9.50871393212974,-2.394420417473465
1774158166276353800,6.536353759765625,-0.21638976609995586,9.533027704653144,-2.2901878895826635
1774158166296345600,6.556345703125,-0.3952848641293123,9.561199906170367,-2.1442036937639117
1774158166316338700,6.576338623046875,-0.6778013541474938,9.602087212353943,-1.8737319714024663
1774158166336331000,6.5963310546875,-0.9113030168343335,9.641481065109371,-1.5432903489857912
1774158166356323800,6.61632373046875,-1.020330012460053,9.65655413107872,-1.3712440756715834
1774158166376316000,6.63631591796875,-1.0380008398376404,9.660509590706228,-1.3294782330878079
1774158166396308700,6.656308837890625,-1.0474867533244192,9.656206925076246,-1.3530844418637453
1774158166416301800,6.6763017578125,-1.1196247186224908,9.63499404117763,-1.443507932371646
1774158166436294000,6.6962939453125,-1.1661909472253174,9.616104631790519,-1.5299990518666804
1774158166456286700,6.71628662109375,-1.1175233624290675,9.629468555754423,-1.4815109152905641
1774158166476278800,6.73627880859375,-1.0208094665400684,9.657799747225642,-1.3620651823073624
1774158166496272000,6.75627197265625,-0.9102866063334047,9.683349783545731,-1.2547830575875938
1774158166516264700,6.7762646484375,-0.785071861494705,9.70741162713468,-1.1490076841689645
1774158166536256800,6.7962568359375,-0.5801600046826526,9.733195472210646,-1.0481992855079472
1774158166556249900,6.816249755859375,-0.3696604839313775,9.743012517347932,-1.0523587432749568
1774158166576241700,6.83624169921875,-0.30738164934664963,9.731703772348165,-1.1704045463323594
1774158166596234800,6.85623486328125,-0.34260252726636825,9.714220722627639,-1.2988238593660295
1774158166616226600,6.8762265625,-0.3352954556560144,9.70823171134591,-1.3446937762677669
1774158166636219600,6.8962197265625,-0.17014621184654533,9.708242817261814,-1.3753018266297876
1774158166656212700,6.916212646484375,0.17770230804821474,9.707196523079276,-1.3817191463261842
1774158166676204800,6.936204833984375,0.6396062096573412,9.686871527931094,-1.387745274747908
1774158166696197600,6.95619775390625,1.068661862495914,9.64605261080861,-1.407844644446671
1774158166716190000,6.97618994140625,1.2646679072640836,9.608805122432113,-1.4972944676168263
1774158166736182800,6.996182861328125,1.1315192276209591,9.612958150458335,-1.5751418235376475
1774158166756174800,7.0161748046875,0.7057528255861252,9.660493224093317,-1.532043709436804
1774158166776168000,7.03616796875,0.22699217119496315,9.678082656797766,-1.5663794020198285
1774158166796160800,7.056160888671875,0.027193389930191915,9.674818102043867,-1.6023570165909826
1774158166816152800,7.07615283203125,0.04845264970420394,9.682247375261783,-1.5563200725592672
1774158166836146000,7.09614599609375,0.12880173647999762,9.694558575302361,-1.47286948980391
1774158166856137200,7.11613720703125,0.19402089883293955,9.70319722431004,-1.4073771730653941
1774158166876130300,7.13613037109375,0.2735568836941384,9.703079150888323,-1.3949198425523937
1774158166896123400,7.156123291015625,0.30663649353515354,9.698334586709738,-1.4207910736508667
1774158166916115200,7.176115234375,0.23324922229573128,9.694985860803722,-1.4571287537060678
1774158166936108300,7.1961083984375,0.04138649701052345,9.69146879259348,-1.4980387101128696
1774158166956100400,7.216100341796875,-0.1584021441694349,9.681426706528663,-1.5541186169922352
1774158166976093200,7.23609326171875,-0.3654560179788619,9.665587916883826,-1.616541609288007
1774158166996085500,7.25608544921875,-0.595486899282597,9.64450713493228,-1.6730995089426635
1774158167016078300,7.276078369140625,-0.666351374046132,9.628220016998052,-1.7388890550620852
1774158167036070400,7.2960703125,-0.5049223563361913,9.6265453617841,-1.8014004562936723
1774158167056063500,7.3160634765625,-0.44696467288620767,9.622911973717809,-1.835806583764404
1774158167076056300,7.336056396484375,-0.4317148621104657,9.624799979421496,-1.829541970411688
1774158167096048400,7.35604833984375,-0.38705194637831297,9.624172202911973,-1.8427867980405688
1774158167116041500,7.37604150390625,-0.3785757213907316,9.616783261704445,-1.882696637494117
1774158167136033300,7.396033203125,-0.4026000459808856,9.608131753215194,-1.9214898940078913
1774158167156026400,7.4160263671875,-0.4071394429761916,9.606305122309923,-1.9296430975861847
1774158167176019500,7.43601953125,-0.34577491022478785,9.620853287622332,-1.8681518331825733
1774158167196011300,7.45601123046875,-0.342078430327028,9.641301032367348,-1.7603081290572882
1774158167216004400,7.47600439453125,-0.36275676895752546,9.665717096221446,-1.6163846651606262
1774158167235996200,7.49599609375,-0.4279483491837978,9.683179687675834,-1.4910589342281222
1774158167255989200,7.5159892578125,-0.5004739986252039,9.687895025759936,-1.4368801847949624
1774158167275981300,7.535981201171875,-0.5765879183495417,9.683929044738411,-1.4350865793764591
1774158167295974100,7.55597412109375,-0.6727299691673367,9.679522918733953,-1.4229111345447598
1774158167315967200,7.57596728515625,-0.7960594847813248,9.67268576619029,-1.405633544268459
1774158167335959600,7.59595947265625,-0.9316558498375117,9.662768183287978,-1.390440505181253
1774158167355952400,7.615952392578125,-1.1061468859553336,9.646801383349299,-1.373336517906189
1774158167375944400,7.6359443359375,-1.2634409958176314,9.637854691305757,-1.2984060723453759
1774158167395937300,7.655937255859375,-1.4434499185740948,9.628794602015613,-1.171819819957763
1774158167415929300,7.675929443359375,-1.6245982206240295,9.60871685962677,-1.0970940301235765
1774158167435922400,7.69592236328125,-1.808459727155417,9.576112813141942,-1.0945043789565563
1774158167455914200,7.715914306640625,-1.965708536571264,9.53903951228857,-1.1459002196729182
1774158167475907300,7.7359072265625,-2.096929463022202,9.497148582020401,-1.2559586772382259
1774158167495900400,7.755900390625,-2.173837784527242,9.461332587751746,-1.3885336486466229
1774158167515892200,7.775892333984375,-2.153652051719278,9.437384725931286,-1.5709639533311128
1774158167535885300,7.79588525390625,-1.982889388474822,9.4544603638947,-1.6887039053097366
1774158167555877000,7.815877197265625,-1.7338402472399175,9.496652907457948,-1.7256227462537586
1774158167575870200,7.8358701171875,-1.6489071708418428,9.506037990918754,-1.7569089881382882
1774158167595862300,7.8558623046875,-1.8444304735943673,9.449733335372805,-1.863069269221276
1774158167615855000,7.875855224609375,-2.0005483792841434,9.387200599092244,-2.012129657614976
1774158167635848200,7.89584814453125,-2.043931301675737,9.360364030092954,-2.0919670183092354
1774158167655840500,7.915840576171875,-2.0143815281949937,9.386312125819922,-2.002448513817042
1774158167675833300,7.935833251953125,-1.877155662240833,9.442897936394811,-1.865039254119992
1774158167695825400,7.955825439453125,-1.7045331964738666,9.514211945024131,-1.6567162371575832
1774158167715818500,7.975818603515625,-1.443460439968109,9.590095745787023,-1.4549467334918678
1774158167735810300,7.995810302734375,-1.2411921930000185,9.631435471913218,-1.3657503005608915
1774158167755803400,8.015803466796875,-1.2349604590035974,9.645340663146973,-1.2698971862196922
1774158167775795200,8.035795166015625,-1.3250506259039043,9.644369772288202,-1.1835302776262164
1774158167795788300,8.055788330078125,-1.3661827006287872,9.64396352957487,-1.13925289061293
1774158167815781400,8.075781494140625,-1.3853349987357855,9.644850249281525,-1.1081981924619524
1774158167835773200,8.095773193359374,-1.5286303938619792,9.623944823896885,-1.1015182763066143
1774158167855767600,8.115767578125,-1.8921106547884643,9.547161443945765,-1.2008427200201899
1774158167875759400,8.13575927734375,-2.0914644756145773,9.489301375651358,-1.3226141925372183
1774158167895752400,8.15575244140625,-2.304798744867742,9.425927512371539,-1.4177987599670887
1774158167915744500,8.17574462890625,-2.5442297245383263,9.346604384809732,-1.5291409737326205
1774158167935737300,8.1957373046875,-2.7717174606978894,9.273140504670142,-1.580136416954547
1774158167955730400,8.21573046875,-3.0748680483460427,9.170704797068238,-1.6167043986342846
1774158167975722500,8.235722412109375,-3.258927853928506,9.090855015283822,-1.7047417246580123
1774158167995715300,8.25571533203125,-3.3193253317460414,9.061104020142555,-1.7460963560923932
1774158168015707400,8.275707275390625,-3.2912425620779393,9.070756814628838,-1.7491421535290776
1774158168035700500,8.295700439453125,-3.2714681865498423,9.078231096032262,-1.747457561443001
1774158168055692500,8.315692626953124,-3.312604499058425,9.065390903681516,-1.7365857465557752
1774158168075685400,8.335685302734374,-3.464401618939638,9.005603082194924,-1.7514038148507476
1774158168095677400,8.355677490234376,-3.6190447759017346,8.944292581185698,-1.7528598588779567
1774158168115670500,8.37567041015625,-3.6923201477319,8.916753416875004,-1.7403103200368581
1774158168135663600,8.39566357421875,-3.736248136785626,8.902017035514115,-1.7218974421203135
1774158168155655400,8.415655517578125,-3.8295372458577153,8.857297019299864,-1.7473755822479724
1774158168175648500,8.4356484375,-3.9883421986743803,8.78098944016695,-1.777004850705713
1774158168195640600,8.455640625,-4.124773699380457,8.71515357068777,-1.7896198559984564
1774158168215633400,8.47563330078125,-4.189713204541802,8.679522869858145,-1.8117894561000167
1774158168235625500,8.49562548828125,-4.182613601669669,8.680305544668435,-1.8243952551729976
1774158168255618300,8.515618408203125,-4.12102895989418,8.702779242283105,-1.85718240313977
1774158168275610400,8.5356103515625,-4.04033892789334,8.744705243864654,-1.8374372537061572
1774158168295603500,8.555603515625,-3.8694481082245704,8.823909128960967,-1.8265796134747563
1774158168315596300,8.57559619140625,-3.67419237036705,8.901537727564573,-1.85292518408671
1774158168335588400,8.59558837890625,-3.5746547222942113,8.933478341704607,-1.893464992006868
1774158168355581400,8.61558154296875,-3.514887651334703,8.94604263972342,-1.9453239201903343
1774158168375573500,8.635573486328125,-3.457467435762286,8.960766746124625,-1.9801387745924293
1774158168395566300,8.65556640625,-3.3932398782625794,8.978326952734589,-2.011453804180026
1774158168415558400,8.675558349609375,-3.3141663415476676,9.006198710000515,-2.0186817096069456
1774158168435551500,8.695551513671875,-3.1992718421280384,9.060665628725289,-1.959436616694927
1774158168455543600,8.71554345703125,-3.0581261723816393,9.114353379771114,-1.9356665956594048
1774158168475536400,8.735536376953124,-2.9917034429252145,9.117140380141139,-2.024315769971162
1774158168495529500,8.755529541015624,-2.9682591467127204,9.093174982663989,-2.161943494724482
1774158168515521500,8.775521484375,-2.8066262769937516,9.139639212197064,-2.181791666141152
1774158168535514400,8.795514404296876,-2.4953566802978515,9.238897458806633,-2.1415802133925257
1774158168555506400,8.81550634765625,-2.2143264467820525,9.31503143493831,-2.120687939750403
1774158168575499500,8.83549951171875,-2.0039694397740067,9.359441654551029,-2.134325127697736
1774158168595491300,8.8554912109375,-1.8118309571541844,9.377682829162477,-2.224124348827451
1774158168615484400,8.875484375,-1.6145469283394513,9.415542311957479,-2.2161182986348864
1774158168635476200,8.895476318359375,-1.4359030103258787,9.489923891463874,-2.0124410616517068
1774158168655469300,8.91546923828125,-1.3683384173579514,9.549044188952445,-1.7645916515953837
1774158168675462400,8.93546240234375,-1.4000893541447816,9.577723755469918,-1.5739657654955983
1774158168695454500,8.955454345703124,-1.4173783425979316,9.59286170336902,-1.4623394740916789
1774158168715447600,8.975447509765624,-1.3694243128985166,9.611800212594867,-1.381437991297245
1774158168735439600,8.995439697265626,-1.315068599463254,9.629887073427438,-1.3062440724946558
1774158168755432400,9.015432373046876,-1.2311048064887522,9.649048285493254,-1.2452427835650741
1774158168775424500,9.035424560546875,-1.1392403233923016,9.666807229545713,-1.1938800414007156
1774158168795417600,9.05541748046875,-1.1021876269355415,9.676794370552896,-1.1468295364122838
1774158168815409400,9.075409423828125,-1.096277379978448,9.683777069047093,-1.0922469554185867
1774158168835402500,9.095402587890625,-1.075501060866192,9.68993617619872,-1.057745185553655
1774158168855394000,9.11539404296875,-1.0471792948104441,9.693099608665705,-1.0571869671490042
1774158168875387000,9.135386962890625,-1.0154939706057309,9.697858785891531,-1.0443645296506583
1774158168895380000,9.1553798828125,-0.9620272418994456,9.707128718540073,-1.0082469951521604
1774158168915372000,9.1753720703125,-0.8123725408744067,9.726726568457483,-0.9493442128717898
1774158168935364900,9.19536474609375,-0.6033230728009715,9.747462482494115,-0.8907165942709893
1774158168955357200,9.215357177734376,-0.5878739400608465,9.754439335769414,-0.8220223396860062
1774158168975350000,9.23535009765625,-0.7171596971981227,9.749341135847567,-0.7787311872310936
1774158168995342000,9.255342041015625,-0.8047734640475362,9.733417006006837,-0.8850432248096912
1774158169015335200,9.275335205078125,-0.8559114575453102,9.716353058481216,-1.0150216769188642
1774158169035327000,9.295326904296875,-0.8754580156669021,9.707008891552686,-1.0853318422678857
1774158169055320000,9.315320068359375,-0.8332898758925497,9.70437211330831,-1.140691472048685
1774158169075313200,9.335313232421875,-0.7344258162323385,9.702593413197993,-1.2209371212828903
1774158169095305000,9.355304931640624,-0.6165663295272737,9.695817635452746,-1.3346689335986972
1774158169115298000,9.375298095703124,-0.5408620865823701,9.685108025389908,-1.441019914948195
1774158169135290000,9.3952900390625,-0.5818634110670536,9.671645317226648,-1.5136336079992354
1774158169155283000,9.415282958984376,-0.6731003368496894,9.658293668222427,-1.5603409986384211
1774158169175275000,9.43527490234375,-0.6549017592709511,9.653982234764099,-1.5943987510628996
1774158169195268000,9.45526806640625,-0.5706842107310891,9.656191727507114,-1.6132766161426901
1774158169215260000,9.475260009765625,-0.5211011915903538,9.658777652347087,-1.6145704553455114
1774158169235253000,9.4952529296875,-0.4746764172848314,9.658643212312459,-1.629627154701948
1774158169255245000,9.5152451171875,-0.4355245931243524,9.65770739276707,-1.646024455012381
1774158169275238100,9.535238037109375,-0.36963480150084943,9.652149174118042,-1.6940458508595824
1774158169295231000,9.55523095703125,-0.3246109069691971,9.642985039931535,-1.7543790312692522
1774158169315223000,9.57522314453125,-0.3145896444967016,9.635738137543202,-1.7955423779152333
1774158169335216000,9.595216064453124,-0.2571775574318133,9.635919923850894,-1.8036884211003779
1774158169355208200,9.615208251953124,-0.21108121136305852,9.636475219646096,-1.806699147223681
1774158169375201000,9.635200927734376,-0.20803888452509417,9.628564884912967,-1.8487416147917508
1774158169395193000,9.655193115234376,-0.21698259916026144,9.619613516694306,-1.8937639749534427
1774158169415186200,9.675186279296875,-0.20800242497222496,9.62514660090208,-1.8664627110518515
1774158169435178000,9.695177978515625,-0.16421137843746691,9.641188219642638,-1.7863152614951132
1774158169455171000,9.715171142578125,-0.14263319575726055,9.649998133563995,-1.7399959933906792
1774158169475163000,9.735162841796875,-0.1164286775838118,9.653491236376762,-1.7224834253147243
1774158169495156000,9.755156005859375,-0.09615155843165703,9.658559041160345,-1.6951050045236944
1774158169515148300,9.775148193359374,-0.11627935050730592,9.662843002089858,-1.6692364037737248
1774158169535140900,9.795140869140624,-0.16379072360629215,9.668424601614475,-1.632515131228417
1774158169555134000,9.815134033203124,-0.19689216168662532,9.673534491974115,-1.598227077179402
1774158169575126300,9.835126220703126,-0.21887511664228512,9.67648925012648,-1.5773432791046798
1774158169595119000,9.855119140625,-0.2424342714061029,9.678030049827694,-1.56440444868505
1774158169615111200,9.875111083984375,-0.25989843376306815,9.677511578911542,-1.5647987086996435
1774158169635104300,9.895104248046875,-0.2613577291932888,9.67773720436096,-1.5631661390617488
1774158169655096000,9.915095947265625,-0.23121833752263335,9.680867903602122,-1.5484616141438483
1774158169675089200,9.935089111328125,-0.23491123722381888,9.683978729099035,-1.5283179669119418
1774158169695081000,9.9550810546875,-0.2361254535854794,9.687909054285287,-1.5030143065683543
1774158169715074000,9.975073974609375,-0.23569530027359722,9.690592594280838,-1.4856734417974948
1774158169735066000,9.995066162109374,-0.235457125869859,9.692332131424546,-1.4743192502208053
1774158169755059000,10.015058837890624,-0.2417888496420346,9.691251350450516,-1.4803895100452005
1774158169775052000,10.035052001953124,-0.24976887034419923,9.690072954320907,-1.4867656209483742
1774158169795044000,10.055044189453126,-0.29386814257791266,9.688744920587538,-1.487365486537665
1774158169815037000,10.075036865234376,-0.3816683901764452,9.686909521853924,-1.4793622128240764
1774158169835029200,10.095029296875,-0.43230975926369425,9.689184481048583,-1.4502378251485526
1774158169855022000,10.11502197265625,-0.40956469736173745,9.692595166274904,-1.4339577214770018
1774158169875014100,10.13501416015625,-0.37706560908872633,9.693876438257098,-1.434209065889567
1774158169895007200,10.15500732421875,-0.3428646853338927,9.696925304433703,-1.4221291903868316
1774158169914999000,10.1749990234375,-0.2689083455022424,9.705914082053303,-1.375972565498203
1774158169934992100,10.1949921875,-0.20757828127602115,9.711974989527464,-1.3434459681637585
1774158169954984200,10.214984130859374,-0.15233247800008393,9.716246090975403,-1.3197455052331089
1774158169974977000,10.23497705078125,-0.08244280308545567,9.71981459711194,-1.299549397161603
1774158169994969000,10.254968994140626,-0.02012236698186025,9.722160283455253,-1.2843489054203032
1774158170014962000,10.2749619140625,-0.004729895476183446,9.72205506951511,-1.2853063522756099
1774158170034955000,10.294955078125,-0.02610473161038244,9.72169558855295,-1.2877721578672527
1774158170054947000,10.314947021484375,-0.048058371423301285,9.718087334927915,-1.3140934708207845
1774158170074940000,10.33493994140625,-0.037358972227224146,9.711443659129738,-1.362659056547284
1774158170094932000,10.354931884765625,-0.03962798573828768,9.705269354408978,-1.4058970175102352
1774158170114925000,10.374925048828125,-0.04368056733103003,9.700593179291486,-1.4376887246988712
1774158170134917000,10.394917236328125,0.0025481466879195068,9.70215268369317,-1.4278024137176573
1774158170154910200,10.41491015625,0.008010217765139532,9.700440034556388,-1.439368056087941
1774158170174902000,10.434902099609374,-0.033051258246076756,9.695741063085197,-1.4703386561520397
1774158170194895000,10.45489501953125,-0.09431488105640747,9.689501876434683,-1.5083220575876533
1774158170214887200,10.47488720703125,-0.1359736008707434,9.68495604969859,-1.5341250457555056
1774158170234880000,10.4948798828125,-0.09142546149152331,9.684128951224684,-1.5426131803765892
1774158170254872000,10.5148720703125,-0.06273516351748258,9.678395376008748,-1.5795966109894215
1774158170274865200,10.534865234375,-0.0681496034813812,9.674115506732463,-1.6053769489340484
1774158170294857000,10.55485693359375,-0.05333788272880483,9.672044545677304,-1.6183584494516252
1774158170314850000,10.57485009765625,-0.03813852806524373,9.67067267280221,-1.6269646574944256
1774158170334843100,10.594843017578125,-0.050221125248027965,9.666704353693127,-1.6500605786606668
1774158170354835000,10.6148349609375,-0.09460411892710253,9.66358476036787,-1.6663047342360018
1774158170374828000,10.634828125,-0.10903577258721925,9.66050783714056,-1.683179004408419
1774158170394820000,10.654820068359374,-0.11849066988122649,9.657315178579092,-1.7007641993291676
1774158170414813000,10.67481298828125,-0.11753285769973881,9.657489366102219,-1.6998380243949591
1774158170434805200,10.69480517578125,-0.102431250622496,9.657771105653048,-1.699216969887167
1774158170454798000,10.714798095703125,-0.11008270609057508,9.656028061378002,-1.7086160818733274
1774158170474790100,10.7347900390625,-0.1120242777455598,9.654377371561527,-1.7177974594555794
1774158170494783200,10.754783203125,-0.11467944102999754,9.653522800558806,-1.7224182511240242
1774158170514775000,10.774775146484375,-0.11825779270711355,9.652458386197686,-1.7281316603347658
1774158170534768000,10.79476806640625,-0.12220736144995316,9.650558690056204,-1.7384461336001753
1774158170554760000,10.814760009765624,-0.13457572590471245,9.647069678896665,-1.7567920837603508
1774158170574753000,10.8347529296875,-0.15595096989134324,9.641803136670589,-1.7837246604800223
1774158170594745000,10.8547451171875,-0.17723408774826674,9.633563716113567,-1.825759529263526
1774158170614738000,10.874738037109376,-0.19768881022334098,9.625811786812543,-1.8641458124116062
1774158170634731000,10.89473095703125,-0.18940757808489725,9.620939796862006,-1.8899767114996908
1774158170654723000,10.91472314453125,-0.15020678194984793,9.61651087450385,-1.915862117253989
1774158170674716000,10.9347158203125,-0.10159106433815322,9.610759179109335,-1.947660108052939
1774158170694708200,10.954708251953125,-0.07475382405200508,9.605947979435324,-1.9724458820022641
1774158170714701000,10.974701171875,-0.04904111255006864,9.60356663725674,-1.9848180184498427
1774158170734693000,10.994693115234375,0.0020643724831075814,9.600094577232003,-2.0021395939983426
1774158170754686200,11.014686279296875,0.058365967423352406,9.59553121483922,-2.023052325906604
1774158170774678000,11.034677978515624,0.11401278468165546,9.59084860998094,-2.0427961601659654
1774158170794671000,11.054671142578124,0.1713997921042144,9.585247721233964,-2.0649486630022524
1774158170814663200,11.0746630859375,0.2166663362853229,9.576906593868136,-2.09912039719522
1774158170834656000,11.094656005859376,0.2557686770145781,9.567597498252987,-2.1368327266044913
1774158170854647800,11.114647705078125,0.2978354387736879,9.558840775823592,-2.1703150172285732
1774158170874641000,11.134640869140625,0.3372285426104441,9.551403903821111,-2.1971223601333794
1774158170894632700,11.1546328125,0.3773605369146913,9.541907176679372,-2.2315882549673316
1774158170914625800,11.174625732421875,0.4494687281290069,9.527609771257639,-2.278816308479756
1774158170934619000,11.194618896484375,0.5137818815529346,9.51119522755146,-2.333146595212817
1774158170954611000,11.21461083984375,0.5175051398597658,9.49681365097761,-2.3902128827810287
1774158170974603800,11.234603759765625,0.5078890971872956,9.485859126242994,-2.4353426488399506
1774158170994596000,11.25459619140625,0.5022244224891066,9.474938503777981,-2.478652798256278
1774158171014589000,11.2745888671875,0.5053595787096768,9.461064876726269,-2.5304648185580967
1774158171034581000,11.2945810546875,0.4696945006864145,9.450508411398529,-2.5763717064693568
1774158171054574000,11.314573974609376,0.32187457734048364,9.452140396514535,-2.5930305803254243
1774158171074566000,11.33456591796875,0.3296356763286516,9.449715215194225,-2.600889477132261
1774158171094559000,11.35455908203125,0.4583817370986566,9.443633849453926,-2.603468095448613
1774158171114550800,11.37455078125,0.47869832974467424,9.439889986750483,-2.6133719420865176
1774158171134544000,11.3945439453125,0.49203036073297257,9.431738828998803,-2.6401889296025036
1774158171154536000,11.414535888671875,0.5037229904837907,9.418698730161786,-2.6841654339730736
1774158171174528800,11.43452880859375,0.5105326339660212,9.407156176406145,-2.7230758871257303
1774158171194520800,11.454520751953124,0.5100040800472722,9.397927744811772,-2.7548537119194862
1774158171214514000,11.474513916015624,0.48836018432024864,9.390169970291852,-2.7850696942239996
1774158171234506000,11.494506103515626,0.4442252379849553,9.38306744481027,-2.8162235419005155
1774158171254499000,11.5144990234375,0.3849707561900839,9.374832115906477,-2.852138612629473
1774158171274492000,11.534491943359376,0.3183645599255338,9.36626302500367,-2.8882755094155668
1774158171294484000,11.55448388671875,0.2802755244246684,9.355390333333611,-2.9272002833545208
1774158171314477000,11.57447705078125,0.2474393131517805,9.34116131697297,-2.9752053125888107
1774158171334468900,11.59446875,0.17447174689546227,9.3272684006989,-3.0235768370479343
1774158171354462000,11.6144619140625,0.0915762864053715,9.313069194954632,-3.070623834905028
1774158171374454000,11.6344541015625,0.0267251330976258,9.297120515194536,-3.119810182878375
1774158171394446800,11.65444677734375,-0.031427353688539,9.278314107915758,-3.1752628977701067
1774158171414439000,11.67443896484375,-0.0792091640596278,9.257092456188797,-3.235792185273766
1774158171434431700,11.694431640625,-0.10674899509060196,9.236547680810093,-3.293203340756893
1774158171454423800,11.714423828125,-0.11708280324414372,9.21991803304851,-3.339129517890513
1774158171474417000,11.7344169921875,-0.12167825954193248,9.206930541181563,-3.3746114578992126
1774158171494409000,11.754408935546875,-0.12938212105068378,9.194767809700965,-3.4073277325868605
1774158171514401800,11.77440185546875,-0.1491965911271516,9.180911718305945,-3.443685286386311
1774158171534393900,11.794393798828125,-0.17304070944534614,9.170120859700441,-3.471216267390549
1774158171554387000,11.814386962890625,-0.19264153677113352,9.163525114697217,-3.4875577458605167
1774158171574379000,11.83437890625,-0.2045134320789948,9.157051534768938,-3.5038536316230893
1774158171594371800,11.854371826171874,-0.2262243286276236,9.15337372303903,-3.512117602099478
1774158171614364000,11.874364013671874,-0.2450278680958785,9.157601569867133,-3.4998093246683477
1774158171634357000,11.89435693359375,-0.25966639683917164,9.165359344387054,-3.478382798019051
1774158171654348800,11.914348876953126,-0.2767886869559064,9.171784993520378,-3.460073234346509
1774158171674342000,11.934341796875,-0.3069161507267505,9.178622146064043,-3.439343165528774
1774158171694335000,11.9543349609375,-0.32086072412282224,9.189908679232001,-3.4077862900093194
1774158171714326800,11.974326904296875,-0.30567656246181574,9.20283421177864,-3.3741301041230556
1774158171734319900,11.99431982421875,-0.2871266506947577,9.215586725845933,-3.340794528493285
1774158171754311700,12.014311767578125,-0.27744947068588804,9.234586025348305,-3.28874256195575
1774158171774304800,12.0343046875,-0.2676927409010939,9.254740340104698,-3.2324118951857086
1774158171794297000,12.054297119140625,-0.2632017313584685,9.277271320864557,-3.167546916565299
1774158171814290000,12.0742900390625,-0.23430203755060208,9.300862624332309,-3.0999107196658846
1774158171834282000,12.094281982421874,-0.20609860064489766,9.319463279905914,-3.045569765408337
1774158171854275000,12.114275146484376,-0.18219360985178498,9.338797510451078,-2.9873130990117787
1774158171874266600,12.1342666015625,-0.1404247533270158,9.360476258295774,-2.920983308535814
1774158171894259500,12.154259521484375,-0.09018390959836542,9.38601401965618,-2.839893171301484
1774158171914251500,12.17425146484375,-0.04953077749684453,9.41240576749742,-2.752187707580626
1774158171934244600,12.19424462890625,-0.015003972513711777,9.436815986132622,-2.6677055898204443
1774158171954236400,12.214236328125,0.011694084205676336,9.458994500192999,-2.587986156417429
1774158171974229500,12.2342294921875,0.028233512383559718,9.474186224105953,-2.5316741943478585
1774158171994221600,12.2542216796875,0.043922111868788485,9.483451480579376,-2.496513741378486
1774158172014214400,12.27421435546875,0.0442283465400571,9.49739349669218,-2.442937341752648
1774158172034206700,12.294206787109376,0.04372394981503021,9.515308508089184,-2.372209608578682
1774158172054199600,12.314199462890626,0.06118188336060848,9.528347437882422,-2.318887914366275
1774158172074191600,12.334191650390625,0.0868637521997094,9.538250407737493,-2.2769759413100776
1774158172094184700,12.354184814453125,0.1157051764816977,9.545575636059045,-2.2447741920158264
1774158172114177500,12.374177490234375,0.14348027757327073,9.55041489278376,-2.2224713209234177
1774158172134169600,12.394169677734375,0.13462426862102,9.55709188632965,-2.194140860104561
1774158172154162700,12.41416259765625,0.10033266177489422,9.564933247479797,-2.1615721771940586
1774158172174154500,12.434154541015625,0.0635077827246394,9.569213116756082,-2.143946650262922
1774158172194147600,12.454147705078125,0.027449282653711268,9.56748000935316,-2.1524274783603845
1774158172214139400,12.474139404296874,0.011226696164434542,9.561777413797378,-2.1777641641907395
1774158172234132500,12.494132568359374,0.0027255716289146218,9.557401682931184,-2.196923914951831
1774158172254124500,12.51412451171875,0.0032755767589464084,9.556025133880972,-2.202894659924507
1774158172274117400,12.534117431640626,0.007715904143816441,9.554636894392967,-2.2089048601247367
1774158172294109700,12.554109619140625,0.03836245931449812,9.55533890518248,-2.2055475125208495
1774158172314102500,12.5741025390625,0.08830986848794854,9.558763618934154,-2.189212317661196
1774158172334094600,12.594094482421875,0.15365142424469813,9.565774959000944,-2.154703606598824
1774158172354087700,12.614087646484375,0.21218528188113123,9.57615256063044,-2.103019450460374
1774158172374079500,12.63407958984375,0.23705462419437243,9.587318097767234,-2.048795108319819
1774158172394072600,12.654072509765625,0.23734388946453108,9.600195114997028,-1.9875426211081444
1774158172414064600,12.674064697265624,0.23601570960069074,9.617863458156584,-1.9003654190450905
1774158172434057500,12.694057373046874,0.2123794892789796,9.636957450205086,-1.8039822894804178
1774158172454049500,12.714049560546876,0.15552898161960765,9.651306878075003,-1.7316116114050149
1774158172474042400,12.73404248046875,0.10677735353540628,9.653816230547427,-1.7212839863970875
1774158172494034400,12.754034423828125,0.0600389695363352,9.637222823143004,-1.8140321204602716
1774158172514027500,12.774027587890625,-0.009178924759439542,9.598221184575557,-2.011080002431571
1774158172534019600,12.79401953125,-0.05323839527654927,9.55712988025248,-2.1974637209169567
1774158172554012400,12.814012451171875,-0.090831331523275,9.538318212276696,-2.276544564155489
1774158172574004500,12.83400439453125,-0.12771091816914268,9.532374793702363,-2.2995462311670183
1774158172593997600,12.85399755859375,-0.18431544257765634,9.53441535961926,-2.287209896685183
1774158172613989600,12.87398974609375,-0.2479580945951864,9.539947859305142,-2.25794376245141
1774158172633982500,12.893982421875,-0.3395402170863002,9.546922374492883,-2.2161678368650377
1774158172653975600,12.9139755859375,-0.4131636351691559,9.541569323027133,-2.226684262443334
1774158172673967600,12.933967529296876,-0.529938833768852,9.504244677761196,-2.3577298323273657
1774158172693960400,12.95396044921875,-0.5988061068331823,9.4700916482687,-2.475722882284224
1774158172713952500,12.973952392578125,-0.6336489817533641,9.461816571876406,-2.498578564953804
1774158172733945600,12.993945556640625,-0.5507855147035792,9.479382623705268,-2.451192544400692
1774158172753937400,13.0139375,-0.37938484581653026,9.49882732888758,-2.4080606741607187
1774158172773930500,13.033930419921875,-0.23929146160203962,9.510698383945225,-2.379027179639041
1774158172793922300,13.05392236328125,-0.10950891565745696,9.5217119453907,-2.3442231388919055
1774158172813915400,13.073915283203124,-0.010950484455382683,9.527357842323184,-2.323729509178549
1774158172833907700,13.09390771484375,0.05206717323982157,9.523197215512395,-2.340170794761181
1774158172853900500,13.113900634765624,0.09471375331403686,9.524116668444872,-2.335088669191301
1774158172873892600,13.133892578125,0.1277067351843696,9.526181199759245,-2.3250654339574277
1774158172893885700,13.1538857421875,0.20012250364366918,9.522461886975169,-2.335180292997509
1774158172913877500,13.17387744140625,0.2980720788074657,9.504902264887093,-2.3954949148371814
1774158172933870600,13.19387060546875,0.28310313079971816,9.489417695507406,-2.457885320037603
1774158172953862400,13.2138623046875,0.2188492880812846,9.480631162461638,-2.4980232691586015
1774158172973855500,13.23385546875,0.15494122659321874,9.477499294176697,-2.5146301205664874
1774158172993847600,13.25384765625,0.20158941612476483,9.479528169655799,-2.503658936958015
1774158173013840400,13.27384033203125,0.20889005799433216,9.494736260181664,-2.444737376911938
1774158173033832400,13.29383251953125,0.1834898602074012,9.515082882639765,-2.366418457956612
1774158173053825500,13.313825439453124,0.10405981080555357,9.529895836368203,-2.31098503228724
1774158173073817600,13.333817626953126,-0.01359791309958091,9.542314588436485,-2.2615093459784985
1774158173093810400,13.353810546875,-0.09412523110266774,9.555933363944291,-2.201285178901255
1774158173113802500,13.373802490234375,-0.06115857555025722,9.576007599201798,-2.113459157540649
1774158173133795600,13.393795654296875,0.022340527088521047,9.600032033389807,-2.002316119609028
1774158173153787600,13.41378759765625,0.07675534116672351,9.62354559544623,-1.8846346198193729
1774158173173780500,13.433780517578125,0.12589721067752688,9.645279288348554,-1.7672371976681052
1774158173193772500,13.4537724609375,0.17045799947576595,9.663927874717116,-1.6582574752502142
1774158173213765600,13.473765625,0.2211495826466009,9.68160089405179,-1.545345820210874
1774158173233757400,13.49375732421875,0.3098949108092114,9.702669401043654,-1.3901619805008172
1774158173253750500,13.51375048828125,0.4467886587321758,9.72335504619777,-1.1946319557465612
1774158173273743600,13.53374365234375,0.5185015304859727,9.74579367249906,-0.9597153847604989
1774158173293735400,13.5537353515625,0.42553025519140064,9.765848618534207,-0.7858245064929127
1774158173313728500,13.573728515625,0.3501472070248797,9.773326407068968,-0.7279351390387863
1774158173333720300,13.59372021484375,0.3330388723682612,9.77391794322133,-0.7280194563213735
1774158173353713400,13.61371337890625,0.3468919315559789,9.768744339975713,-0.7884871498309075
1774158173373705700,13.633705810546875,0.32949301645494994,9.768929048892854,-0.7936466514859348
1774158173393698600,13.653698486328125,0.27045336472084747,9.772114108669758,-0.7765490939516574
1774158173413690600,13.673690673828125,0.24348641080753877,9.768132930079101,-0.833479553245753
1774158173433683700,13.69368359375,0.28722779124798253,9.7652483145535,-0.8531183196954428
1774158173453675500,13.713675537109374,0.289893448526971,9.768571321496367,-0.8132356605097651
1774158173473668600,13.733668701171876,0.23941866817828267,9.774674899068474,-0.7541879168007523
1774158173493660400,13.753660400390626,0.15253569068829528,9.776166598930955,-0.7574138200446963
1774158173513653500,13.773653564453125,0.029661892085708675,9.773343358203768,-0.8069974967725575
1774158173533645600,13.7936455078125,-0.1116741673999466,9.770531807914375,-0.8334515692602843
1774158173553638400,13.813638427734375,-0.2171433244136162,9.766417942854762,-0.8604129336830229
1774158173573630500,13.83363037109375,-0.2765287025791593,9.761616095530986,-0.8970940203484147
1774158173593623600,13.85362353515625,-0.25450870354874056,9.759919228485225,-0.9217308873463421
1774158173613615600,13.87361572265625,-0.21601126991007477,9.758707514607906,-0.9441169797427952
1774158173633608700,13.893608642578124,-0.24128696453450246,9.755727037492393,-0.9684823363229632
1774158173653600500,13.9136005859375,-0.3343681116780266,9.750751587167382,-0.990673271473497
1774158173673593600,13.933593505859376,-0.3973573960870504,9.746934659227728,-1.0048812450461089
1774158173693585700,13.953585693359376,-0.3675156539224088,9.748130006492138,-1.0046463403116912
1774158173713578500,13.97357861328125,-0.2892479536976665,9.753803960475325,-0.9746927352704107
1774158173733570600,13.993570556640625,-0.2359138383951038,9.761690914332867,-0.9078217505898326
1774158173753563600,14.013563720703125,-0.19172984702000392,9.767760005113482,-0.8511731769770383
1774158173773555500,14.033555419921875,-0.08760379344467073,9.769844994693994,-0.844306433012709
1774158173793548500,14.053548583984375,0.07399233816021587,9.769791218680142,-0.8462401044890284
1774158173813540400,14.073540283203124,0.23547011321559547,9.772430919533967,-0.7839340165711939
1774158173833533400,14.093533447265624,0.3724376570271328,9.774421216568351,-0.7016735934484749
1774158173853525800,14.11352587890625,0.5314778799043968,9.772882170432805,-0.6153830380268395
1774158173873518600,14.1335185546875,0.6284603270690888,9.76979764842093,-0.5713792437905445
1774158173893510400,14.153510498046876,0.6444884287409484,9.770574478012323,-0.5393449965503067
1774158173913503500,14.17350341796875,0.6339353974793106,9.773505270767211,-0.49708315061051395
1774158173933495600,14.19349560546875,0.633230975537002,9.77638170298636,-0.43791305916346607
1774158173953488400,14.21348828125,0.621386881551519,9.778857153189183,-0.39775403072182086
1774158173973480400,14.23348046875,0.566053993647173,9.782101249676943,-0.40059922755248845
1774158173993473300,14.253473388671875,0.4619223323149606,9.785937466838956,-0.43870468446519223
1774158174013465300,14.27346533203125,0.3253204434780404,9.788723298165202,-0.49542307191118595
1774158174033458400,14.29345849609375,0.17765538190025834,9.788552617773414,-0.5683650836011395
1774158174053450200,14.3134501953125,0.07106531739814673,9.784615278324484,-0.6531685057375579
1774158174073443300,14.333443359375,-0.005882284092044574,9.778959444519877,-0.7364150903534143
1774158174093435400,14.353435302734376,-0.06286516940558795,9.773087922137975,-0.8082171747606247
1774158174113428500,14.373428466796875,-0.09815434048827737,9.766435478511452,-0.8817490055698901
1774158174133420500,14.393420654296875,-0.10874560313476249,9.760427178007363,-0.9447888876549899
1774158174153413400,14.413413330078125,-0.14952324753194116,9.754244105458259,-1.0013682684890926
1774158174173405400,14.433405517578125,-0.219260809757933,9.745379831001163,-1.072317900785431
1774158174193398500,14.4533984375,-0.23924429799206554,9.735805362448096,-1.1520648067172616
1774158174213391400,14.473391357421875,-0.2106840652716346,9.725376907414198,-1.2421945019103586
1774158174233383400,14.493383544921874,-0.19708585762782022,9.713234634199738,-1.3359018363945185
1774158174253376500,14.51337646484375,-0.20635431070532648,9.701583943894505,-1.4167153486445545
1774158174273368300,14.533368408203126,-0.2142884464391507,9.68973159353733,-1.4945140431180595
1774158174293361400,14.553361328125,-0.19500594608122482,9.67785177065134,-1.5721131233662367
1774158174313353200,14.573353271484375,-0.1379083409261424,9.666319153767823,-1.6473184403456747
1774158174333346300,14.59334619140625,-0.06197623490896076,9.65319663734436,-1.726950633856654
1774158174353338400,14.61333837890625,-0.010011525388126028,9.641573419567942,-1.7917510228082536
1774158174373331200,14.633331298828125,0.024553851189860143,9.632834232795238,-1.838005993504822
1774158174393323500,14.653323486328125,0.06518185341670177,9.633136430612206,-1.8354389194957912
1774158174413316600,14.673316650390625,0.13743466813294217,9.645098086562752,-1.7673634543962775
1774158174433308400,14.693308349609374,0.17478459397060794,9.66348948329985,-1.660366576358676
1774158174453301500,14.713301513671874,0.1651678754447028,9.687896194803715,-1.5125326610200107
1774158174473293300,14.733293212890626,0.14101700186543165,9.707889181518555,-1.3810891778595744
1774158174493286400,14.753286376953126,0.13682879292797295,9.718701082912087,-1.3032755780778824
1774158174513278500,14.773278564453125,0.1375208120464347,9.724483757966757,-1.2593110564060508
1774158174533271300,14.793271240234375,0.10149769609943032,9.725898300939798,-1.2517812454231083
1774158174553263400,14.813263427734375,0.03494927617041394,9.724298464527726,-1.267749068275094
1774158174573256400,14.83325634765625,-0.01656130436626263,9.722289462792872,-1.2834344209238886
1774158174593248300,14.853248291015625,-0.06267500342861748,9.721392221692204,-1.2887975553922355
1774158174613241300,14.873241455078125,-0.10764136821990831,9.718742583966254,-1.3057115730531512
1774158174633233400,14.8932333984375,-0.1484448777107056,9.712828391486406,-1.345109371331334
1774158174653226500,14.9132265625,-0.18633887469666077,9.705608961626886,-1.3916948891565202
1774158174673218600,14.933218505859376,-0.21484202520130202,9.702222826319932,-1.411069890103489
1774158174693211400,14.95321142578125,-0.2505016781307757,9.702985627385972,-1.3999056681409476
1774158174713203500,14.973203369140625,-0.29374212331175803,9.706059628003835,-1.3698556900531054
1774158174733196500,14.993196533203125,-0.3164996793691069,9.707729607042669,-1.352840696235746
1774158174753188400,15.013188232421875,-0.3651373074185103,9.70966846615076,-1.3264172380819916
1774158174773181400,15.033181396484375,-0.42695071644857524,9.716312141948938,-1.257535278905183
1774158174793173200,15.05317333984375,-0.4617035019325092,9.720210318431258,-1.214391279835999
1774158174813166300,15.073166259765625,-0.4853187707977369,9.720276369404791,-1.2046123016867787
1774158174833158400,15.093158447265624,-0.4976243813477456,9.719710552215576,-1.2041541826557367
1774158174853151200,15.113151123046874,-0.5077862943999469,9.719523505210876,-1.201421250560507
1774158174873145000,15.13314501953125,-0.5152856006467714,9.721440152487158,-1.1825661087691783
1774158174893138200,15.15313818359375,-0.5180346436265856,9.724930917212367,-1.1522765497718006
1774158174913130000,15.1731298828125,-0.522685793900676,9.727670571309327,-1.1267634113959968
1774158174933123000,15.193123046875,-0.5425483957014977,9.729147073602675,-1.104409248507768
1774158174953115100,15.213115234375,-0.5435647696698084,9.730284553200006,-1.0938551212675869
1774158174973108000,15.23310791015625,-0.5268192039109766,9.730188691610097,-1.102846894561872
1774158174993100300,15.253100341796875,-0.4702054093506187,9.72889514466822,-1.139249091220647
1774158175013093000,15.273093017578125,-0.36132823399174957,9.736404497385024,-1.114572184473276
1774158175033085200,15.293085205078125,-0.2620481226102449,9.750048407334088,-1.0189490794956684
1774158175053078300,15.313078369140625,-0.16954886700790375,9.764718153199553,-0.8898938797112553
1774158175073070000,15.333070068359374,-0.10930309088705106,9.771845228600501,-0.8182252854906022
1774158175093063200,15.353063232421874,-0.06406490058416967,9.774320094281434,-0.7930593531172722
1774158175113055200,15.37305517578125,-0.013999533295078435,9.776258368867635,-0.7713526943523437
1774158175133048000,15.393048095703126,0.011998163452476727,9.779574361547827,-0.7281457130495459
1774158175153040100,15.4130400390625,0.00546293301867845,9.783704008698463,-0.6704448539048433
1774158175173033200,15.433033203125,-0.015204222634923643,9.78686218046844,-0.6224616711761802
1774158175193025000,15.45302490234375,-0.030502279299451037,9.786211023083329,-0.6320942265920341
1774158175213018000,15.47301806640625,-0.029690300762862897,9.782527366134524,-0.6867839212220161
1774158175233010200,15.49301025390625,-0.02698518597303191,9.77837316906452,-0.7436763865932822
1774158175253003000,15.5130029296875,-0.04214432050734758,9.775565125906466,-0.7790530395966023
1774158175272995300,15.532995361328124,-0.07907586566931568,9.773547356343268,-0.8011920253641903
1774158175292988200,15.55298828125,-0.13555208752304315,9.770871415132284,-0.825888951986283
1774158175312980200,15.572980224609376,-0.20469792180042712,9.766084180855751,-0.8672246595244855
1774158175332973300,15.592973388671876,-0.26755444667525585,9.759546888041495,-0.9219898305434733
1774158175352965000,15.612965087890625,-0.3391976872589439,9.75207786733508,-0.9758644824635236
1774158175372958200,15.632958251953125,-0.42605574037022886,9.744314247596263,-1.0184408377125858
1774158175392950000,15.652949951171875,-0.5040482769154012,9.737006554931401,-1.0521566448315978
1774158175412943000,15.672943115234375,-0.5620196235645563,9.730378076702356,-1.0836443275723606
1774158175432935200,15.69293505859375,-0.6062305212128907,9.723726802119613,-1.1189392205763609
1774158175452928000,15.712927978515625,-0.6474135954726487,9.71673708936274,-1.1559622525472193
1774158175472920000,15.732920166015624,-0.6787845930311829,9.709812843057513,-1.195469210288301
1774158175492913200,15.7529130859375,-0.7001547133181244,9.703799866378306,-1.2314454366199672
1774158175512905200,15.7729052734375,-0.7005367714382708,9.70155705588758,-1.2487664276465773
1774158175532898300,15.792898193359376,-0.6872346606642007,9.701788526555895,-1.2543543107815087
1774158175552890000,15.81289013671875,-0.6285062851026654,9.703837275779247,-1.2692239631332456
1774158175572883200,15.83288330078125,-0.5384306581843644,9.709606506830454,-1.2664940997779368
1774158175592875300,15.852875244140625,-0.435871031941846,9.720947400534152,-1.2180191149443387
1774158175612868000,15.8728681640625,-0.35865521539021283,9.735421331566572,-1.1239831330277026
1774158175632860200,15.892860107421875,-0.28917415780909356,9.750434191781283,-1.007861795226857
1774158175652853200,15.912853271484375,-0.24344195061130447,9.761188225507736,-0.9112102970495819
1774158175672845000,15.932844970703124,-0.2519870578503236,9.76561890143156,-0.85999397761859
1774158175692838100,15.952838134765624,-0.2851709135171026,9.76465034866035,-0.860627526281774
1774158175712830000,15.972829833984376,-0.28508259591283275,9.761724816602468,-0.8932042463682591
1774158175732823000,15.992822998046876,-0.27414483964992686,9.757669403731823,-0.9397454135950655
1774158175752815400,16.0128154296875,-0.319966478696838,9.752382987761496,-0.9792925572160631
1774158175772808200,16.03280810546875,-0.39772809256296604,9.746041509780287,-1.0133476062268019
1774158175792800300,16.05280029296875,-0.4553465341212228,9.739833302789926,-1.0481984087251126
1774158175812793300,16.07279345703125,-0.47950694271381944,9.735502580109237,-1.0772375292699783
1774158175832785200,16.09278515625,-0.4956218824189156,9.733122406974434,-1.0913532214492558
1774158175852778200,16.1127783203125,-0.5276370230998844,9.731626615458726,-1.089696321087703
1774158175872768800,16.132768798828124,-0.570623858845979,9.730489720383286,-1.0781191344100982
1774158175892761300,16.15276123046875,-0.6197378722354769,9.729075761932133,-1.0636721644498408
1774158175912753700,16.172753662109375,-0.6787813050955533,9.726952778428792,-1.0469147986553609
1774158175932746500,16.19274658203125,-0.7500396380148827,9.723718034291267,-1.0281766343072056
1774158175952738600,16.212738525390623,-0.8267199959829449,9.72104793829918,-0.9940577262800186
1774158175972731600,16.232731689453125,-0.9050605422481894,9.718171506080031,-0.9530890254233032
1774158175992723500,16.252723388671875,-0.9701640788648277,9.714894091844558,-0.9219456260755657
1774158176012716500,16.272716552734376,-1.0132026447981595,9.71226082073152,-0.9032195174913853
1774158176032708600,16.29270849609375,-1.0429263135410844,9.71110522095561,-0.8815433999951928
1774158176052701400,16.312701416015624,-1.0671482430625707,9.711361826065183,-0.8491434247151016
1774158176072693500,16.332693603515626,-1.093609110617265,9.71179495678544,-0.809581741112098
1774158176092686300,16.352686279296876,-1.1167535471003502,9.713692899361252,-0.7532661988459527
1774158176112678400,16.372678466796874,-1.1296747687980533,9.717821961989998,-0.6768801476493478
1774158176132671500,16.39267138671875,-1.1512118431497365,9.719836808943748,-0.6081569957634434
1774158176152663600,16.41266357421875,-1.172969793710485,9.719427059099077,-0.5720592984765768
1774158176172656600,16.43265673828125,-1.1597077957510948,9.72221815112233,-0.5512909069424495
1774158176192648400,16.4526484375,-1.124700341386348,9.728388948711752,-0.5137152825901284
1774158176212641500,16.4726416015625,-1.0904226626008748,9.736462949573992,-0.4273628774460405
1774158176232633600,16.492633544921876,-1.0480511822741478,9.745967860022187,-0.2967776368164457
1774158176252626400,16.51262646484375,-0.9695651631236076,9.757153855425118,-0.16820903323888778
1774158176272618500,16.532618408203124,-0.9049559128299355,9.764325354489683,-0.09683129345728084
1774158176292611600,16.552611572265626,-0.8702333398211747,9.767398186063765,-0.10490603410503826
1774158176312603400,16.572603271484375,-0.8616424024127424,9.767550161755084,-0.15147500265422276
1774158176332596500,16.592596435546874,-0.9367430169086903,9.759642749631404,-0.20561233323160558
1774158176352588300,16.61258837890625,-1.0095605619687587,9.75150094422996,-0.24371810067156327
1774158176372581400,16.632581298828125,-1.0077389725647865,9.751162506055831,-0.2639461382512934
1774158176392573700,16.65257373046875,-1.007663861501962,9.750630591136217,-0.2832031571080908
1774158176412566500,16.67256640625,-1.0191624299854039,9.747996150979398,-0.32904004852306096
1774158176432558600,16.69255859375,-1.0137693387702107,9.747120537188648,-0.36921913337204604
1774158176452551700,16.7125517578125,-0.993646807391569,9.748242234694958,-0.3934981999082491
1774158176472543500,16.73254345703125,-0.9968518870431929,9.745462248587607,-0.4501491116086021
1774158176492536600,16.75253662109375,-1.0312949855234472,9.738742000421881,-0.5135420449150726
1774158176512528400,16.7725283203125,-1.0707023553475736,9.730317286425828,-0.5872908794758841
1774158176532521500,16.792521484375,-1.0672139287099243,9.725607209038733,-0.6663518855027855
1774158176552513500,16.812513427734373,-1.077719102241844,9.71971990456581,-0.7320754537139087
1774158176572506400,16.83250634765625,-1.1196926692921667,9.710147774100303,-0.793524048019573
1774158176592498400,16.85249853515625,-1.1685196093685923,9.701150813174246,-0.8322207853563129
1774158176612491500,16.872491455078126,-1.206618088551238,9.694867787382005,-0.8508821581412106
1774158176632483600,16.892483642578124,-1.2131588154315949,9.693802203977107,-0.8537149704143404
1774158176652476700,16.9124765625,-1.2149909262295813,9.695742816650867,-0.828701013732329
1774158176672468500,16.932468505859376,-1.2437125052578746,9.704209616222977,-0.6722231156237423
1774158176692461600,16.952461669921874,-1.234679888496548,9.713764211031794,-0.5373463700789958
1774158176712453600,16.97245361328125,-1.2258064808849245,9.713099609643221,-0.5687707783252001
1774158176732446500,16.992446533203125,-1.2214817495536059,9.711571669423579,-0.6031254313370212
1774158176752438500,17.0124384765625,-1.199445785769075,9.713160399919747,-0.6214798935972153
1774158176772431600,17.032431640625,-1.1663192497801036,9.71619348400533,-0.6369155092686415
1774158176792423400,17.05242333984375,-1.118770147619769,9.721551796168088,-0.6404398109372705
1774158176812416500,17.07241650390625,-1.0444648482199759,9.731517309865355,-0.6140604841861873
1774158176832408300,17.092408203125,-0.9538505113150924,9.743972302290796,-0.5617552370073273
1774158176852401400,17.1124013671875,-0.8545482794333249,9.756058461403846,-0.5093528495969251
1774158176872393700,17.132393798828126,-0.7944418204516172,9.763898068988322,-0.45338637649677693
1774158176892386800,17.15238671875,-0.7869616207640617,9.767660636392236,-0.3793256264425814
1774158176912379100,17.172379150390626,-0.8028858236700296,9.768610484462975,-0.31623481788784263
1774158176932372000,17.1923720703125,-0.8105057971544564,9.767852944093942,-0.3201818750131875
1774158176952364000,17.212364013671873,-0.8066187996532768,9.766552967411279,-0.36629597593434154
1774158176972357000,17.232357177734375,-0.7969767457567155,9.765086986511944,-0.42224973568338897
1774158176992349000,17.252348876953125,-0.790597566113621,9.763432789564131,-0.46982963484078644
1774158177012342000,17.272342041015627,-0.7904740127991885,9.761396315300464,-0.5105856793275103
1774158177032333800,17.292333740234376,-0.7953133425891399,9.758573074573277,-0.5550936602262779
1774158177052327000,17.312326904296874,-0.8162464596983044,9.755301505556702,-0.5815943848673254
1774158177072319000,17.332319091796876,-0.867953339125216,9.749349319154023,-0.6059969681853428
1774158177092311800,17.352311767578126,-0.9446092933043837,9.738522220191358,-0.6627793607782572
1774158177112303900,17.372303955078124,-1.0186882366023957,9.725613638779521,-0.7383080644931643
1774158177132297000,17.392296875,-1.044235204182565,9.71988941591382,-0.7769879237603395
1774158177152289000,17.4122890625,-1.0227828124396503,9.723592362084984,-0.7589991164747625
1774158177172281900,17.43228173828125,-1.033099112335965,9.72153016885817,-0.7713353048261254
1774158177192274000,17.45227392578125,-1.0933066205393522,9.713317051786184,-0.7915433955963701
1774158177212267000,17.47226708984375,-1.109902804422751,9.711717215374112,-0.7880668785922229
1774158177232259000,17.492259033203126,-1.1079215674776584,9.713487147656082,-0.7688181343734264
1774158177252252000,17.512251953125,-1.113335920676589,9.714206109580397,-0.7517227687962352
1774158177272244000,17.532243896484374,-1.113698105052486,9.715696640399099,-0.7316507985610514
1774158177292237000,17.552237060546876,-1.1101095790412276,9.716858669915794,-0.7215998716026544
1774158177312228900,17.572228759765625,-1.0958951026625932,9.7194428411901,-0.7083934762880205
1774158177332222000,17.592221923828124,-1.0833559390850365,9.72320774668157,-0.6752258045710623
1774158177352213800,17.6122138671875,-1.0861267920378594,9.725160049793123,-0.6418578610416501
1774158177372206800,17.632206787109375,-1.0524399187523872,9.731062551835178,-0.6076101024704054
1774158177392199000,17.652198974609377,-0.9660315821699798,9.742520934438705,-0.5660785435665399
1774158177412191700,17.672191650390626,-0.8814844363495707,9.754509478396177,-0.492871962656267
1774158177432184000,17.69218408203125,-0.7940479988284409,9.765860308972,-0.4097101337144151
1774158177452177200,17.71217724609375,-0.7295504652809351,9.773157480242848,-0.35148810023982074
1774158177472169000,17.7321689453125,-0.654387745334208,9.779286192256212,-0.3282092237221077
1774158177492162000,17.752162109375,-0.5880670880127697,9.783234053099156,-0.33601244481895115
1774158177512153900,17.77215380859375,-0.5504471130620688,9.784982358071208,-0.3485771446965635
1774158177532147000,17.79214697265625,-0.5121110622638836,9.787038121557234,-0.34931093886382875
1774158177552139000,17.812138916015623,-0.48922319435775274,9.788098444265126,-0.35239538781046864
1774158177572131800,17.8321318359375,-0.4940699037365615,9.787184836551546,-0.3705331385800615
1774158177592124000,17.8521240234375,-0.5171649481199682,9.784717569655179,-0.402762031609565
1774158177612117000,17.872116943359377,-0.5360730987401678,9.781271813115477,-0.4579831662351265
1774158177632108800,17.89210888671875,-0.5427014308387413,9.777969848960637,-0.5168785323940217
1774158177652102000,17.912101806640624,-0.5585844614841043,9.77451357102692,-0.5632550105784088
1774158177672094000,17.932093994140626,-0.5758133172478527,9.771223297309875,-0.60167424614802
1774158177692087000,17.952087158203124,-0.584487110634148,9.768619252291321,-0.6346929378483445
1774158177712079000,17.9720791015625,-0.5799542529774829,9.766890236541629,-0.6647500032640993
1774158177732072000,17.992072021484375,-0.5669307399490848,9.765783152082562,-0.6917077144250273
1774158177752064000,18.01206396484375,-0.5574066498763859,9.764681912842393,-0.7146086244758219
1774158177772057000,18.03205712890625,-0.5616633574727923,9.762352593111991,-0.7425646259590983
1774158177792049000,18.052048828125,-0.5786111678054556,9.759627552062273,-0.7650251718312502
1774158177812042000,18.0720419921875,-0.5944710367709398,9.75769044651985,-0.7774651128180324
1774158177832033800,18.09203369140625,-0.5963504573093726,9.757088388973473,-0.7835750470656901
1774158177852027000,18.11202685546875,-0.5857116839930415,9.757174898213147,-0.79046897129789
1774158177872019000,18.13201904296875,-0.5797505836315453,9.756599144151807,-0.8018952782627194
1774158177892012000,18.152011962890626,-0.5740634048406035,9.755973121207951,-0.8135303326074034
1774158177912004000,18.172004150390624,-0.5639049989197403,9.756140878990292,-0.8186109238073229
1774158177931997200,18.1919970703125,-0.557029962051101,9.75696739294231,-0.8134549292836338
1774158177951989000,18.211989013671875,-0.5526366955282166,9.758815066635607,-0.7940369659777731
1774158177971982000,18.231982177734373,-0.5713574338175356,9.760829329067468,-0.7550655033528805
1774158177991974100,18.25197412109375,-0.5763326284142211,9.764994632053375,-0.6950615548975765
1774158178011967000,18.271967041015625,-0.586585946076922,9.768763629198073,-0.6305305574718862
1774158178031959000,18.291958984375,-0.6366577351152897,9.768764213719964,-0.5799327352654189
1774158178051952000,18.3119521484375,-0.6916597836300731,9.766094117727874,-0.561618239689432
1774158178071944000,18.33194384765625,-0.720596758974716,9.762889184206724,-0.5806230556171387
1774158178091937000,18.35193701171875,-0.7373359315253794,9.758612237539888,-0.6294447349965572
1774158178111928800,18.3719287109375,-0.7854102266035974,9.750394444292784,-0.6952088544137776
1774158178131922000,18.391921875,-0.8429604982964694,9.741549459058046,-0.7496872443806379
1774158178151914200,18.411914306640625,-0.8895330835748463,9.735027363812923,-0.7799618980698287
1774158178171907000,18.431906982421875,-0.9163548933964222,9.732724347567558,-0.7776620966948569
1774158178191899100,18.451899169921877,-0.9341293272789567,9.732082542532682,-0.7644302016127854
1774158178211892200,18.471892333984375,-0.9486655829578637,9.731496267077326,-0.7539152373392134
1774158178231884000,18.491884033203124,-0.966469389065355,9.730456987157464,-0.7446577257808298
1774158178251877000,18.511877197265626,-0.9792825472787022,9.729972418510913,-0.7341902539107948
1774158178271869000,18.531868896484376,-0.9882774623781442,9.729901106840371,-0.7229805123060942
1774158178291862000,18.551862060546874,-1.0042843020662664,9.72887819353342,-0.7146636425986885
1774158178311854000,18.57185400390625,-1.0303386346466838,9.726141462045907,-0.7148243861183524
1774158178331847000,18.591846923828125,-1.0482125833809375,9.724117847263813,-0.7163486000109464
1774158178351839000,18.6118388671875,-1.063270232585445,9.722205876162647,-0.7201096330448985
1774158178371832000,18.63183203125,-1.0834179714705794,9.719299633327125,-0.7292421299841254
1774158178391824100,18.65182421875,-1.0971155843682587,9.717178987911343,-0.7370083800714462
1774158178411817000,18.67181689453125,-1.097743287812546,9.717588737756014,-0.7306332920815796
1774158178431809000,18.69180908203125,-1.0894240069523453,9.720501410332322,-0.7038579517502337
1774158178451802000,18.711802001953124,-1.0860282270342112,9.724445764043926,-0.6527612401109189
1774158178471794200,18.731794189453126,-1.0997167798426002,9.726884389367699,-0.5905442187160254
1774158178491787000,18.751787109375,-1.1213424092605708,9.727383571061491,-0.5394247107230127
1774158178511779000,18.771779052734374,-1.1071565013892948,9.731401574531198,-0.49437805637028065
1774158178531772200,18.791772216796875,-1.0901149118259548,9.73633727736771,-0.4310291814012453
1774158178551764000,18.811763916015625,-1.059305785933882,9.742574125930666,-0.3612290844662115
1774158178571757000,18.831757080078123,-1.02543880684115,9.74844272570312,-0.29453124612914394
1774158178591748900,18.851748779296877,-0.9732637984458357,9.755071788454055,-0.24845910291988402
1774158178611741200,18.8717412109375,-0.9343775298863649,9.758986916071176,-0.24390080029470845
1774158178631734000,18.891734130859376,-0.9139658063028008,9.760368141296505,-0.2650708862312138
1774158178651726000,18.91172607421875,-0.910600348457694,9.759583128398656,-0.30288273049220443
1774158178671719200,18.93171923828125,-0.9081384883888065,9.758803376197815,-0.33377971733082085
1774158178691711000,18.9517109375,-0.9084663321036844,9.758108379670977,-0.35271194294635205
1774158178711704000,18.9717041015625,-0.923591931977868,9.755834004998206,-0.3756044870276004
1774158178731696000,18.991696044921873,-0.9398113184381276,9.752777540037036,-0.41287798662818964
1774158178751689000,19.01168896484375,-0.9355267729867249,9.751195239281653,-0.45757776377201076
1774158178771681000,19.031680908203125,-0.9273509922504425,9.749497787714004,-0.5076579187799245
1774158178791674000,19.051674072265627,-0.912247604208067,9.748159232586621,-0.5582171260090545
1774158178811666000,19.071666015625,-0.889933261873573,9.746569917568564,-0.6187101366229355
1774158178831659000,19.091658935546874,-0.8802353130713104,9.743152218079567,-0.683044004041329
1774158178851651000,19.111651123046876,-0.8663122939199208,9.739741532853245,-0.7465368905909359
1774158178871643600,19.1316435546875,-0.8474109748993068,9.738011348059773,-0.7895737029585986
1774158178891635700,19.1516357421875,-0.8460405633289366,9.736924721866846,-0.8042926217280327
1774158178911628500,19.171628662109374,-0.8610216401658952,9.735278708225488,-0.8082986424989997
1774158178931620600,19.19162060546875,-0.8844482545912266,9.734314247107505,-0.7945240188423544
1774158178951613700,19.21161376953125,-0.9039921823643148,9.734273915097116,-0.7727437833845615
1774158178971605500,19.23160546875,-0.9103072837952524,9.736059629470109,-0.7422254571326077
1774158178991598600,19.2515986328125,-0.900413593225181,9.739868958625197,-0.7032807363841682
1774158179011590400,19.27159033203125,-0.882638282559812,9.744809337636827,-0.6557766424093395
1774158179031583500,19.29158349609375,-0.8767763317238539,9.74920611129105,-0.5955072479508817
1774158179051575600,19.311575439453126,-0.8806672016825526,9.753427528378367,-0.5152383639715612
1774158179071568400,19.331568359375,-0.8431420654084533,9.760911162132023,-0.42909985730648037
1774158179091560700,19.351560791015626,-0.7235507134094834,9.77354326469004,-0.35314123774170875
1774158179111553800,19.3715537109375,-0.55901339095328,9.787231013780831,-0.26072779725929723
1774158179131545600,19.391545654296873,-0.44722869411725547,9.795446468940376,-0.1401072300767526
1774158179151538700,19.41153857421875,-0.3728123355584219,9.79945161292851,-0.04624217514707707
1774158179171530500,19.431530517578125,-0.33964272761270403,9.800767371702193,-0.003163090259100136
1774158179191523600,19.451523681640627,-0.3506436122396961,9.800372819426656,-0.011412389178975718
1774158179211515600,19.471515625,-0.4170557472368702,9.797704477000236,-0.03795758885763353
1774158179231508500,19.491508544921874,-0.5293455805834383,9.792191266536712,-0.056280000595306044
1774158179251500500,19.51150048828125,-0.611349471661821,9.787433258354664,-0.05263162502243649
1774158179271493600,19.53149365234375,-0.6592554975010454,9.784394913572072,-0.037053559539862904
1774158179291485400,19.5514853515625,-0.7157006574962288,9.780492645436524,-0.011409859295171918
1774158179311478500,19.571478515625,-0.7591361137926578,9.777065593597293,0.055561353764822706
1774158179331470600,19.591470703125,-0.7786801876962185,9.774503634154796,0.15203004272109827
1774158179351463700,19.611463623046873,-0.7992980283111334,9.770516610345243,0.26171567578548566
1774158179371455700,19.631455810546875,-0.8370710018664598,9.764265148735046,0.3589242415899411
1774158179391448600,19.651448486328125,-0.8770312563329935,9.758352709820866,0.4192585545107722
1774158179411440600,19.671440673828126,-0.9105627929262816,9.754396081149578,0.4393605910906568
1774158179431433700,19.691433837890624,-0.9456436047881841,9.751226803463696,0.43558702736869453
1774158179451425500,19.711425537109374,-0.9819077081505209,9.74769395316243,0.43442576503697783
1774158179471418600,19.731418701171876,-1.012175566772744,9.744596571668982,0.43443687095288186
1774158179491410400,19.751410400390625,-1.0226582362119108,9.743856566956639,0.4263996949696913
1774158179511403500,19.771403564453124,-1.0032709603052585,9.746495098766683,0.41191721530463543
1774158179531395600,19.7913955078125,-0.9587957126323133,9.751416773077844,0.40121023559030145
1774158179551388400,19.811388427734375,-0.9193116973754017,9.755427762284874,0.39608781454265113
1774158179571380700,19.831380615234377,-0.8920996461272239,9.75758172544837,0.4051721614912152
1774158179591373600,19.85137353515625,-0.85090203188546,9.759095637142657,0.4543328635666519
1774158179611365600,19.87136572265625,-0.7731686577331275,9.762589324477315,0.5142285658745095
1774158179631358700,19.891358642578126,-0.6436302775416523,9.770125565201043,0.5484446141332388
1774158179651350500,19.9113505859375,-0.5312140413364396,9.776321497231722,0.5583181386981159
1774158179671343600,19.931343505859374,-0.40602702475488184,9.783191383001208,0.5428388665480539
1774158179691335700,19.951335693359376,-0.33134606044311077,9.788581259346008,0.49421957787293935
1774158179711327500,19.971327392578125,-0.34484588574636726,9.792114694169163,0.40738201956041153
1774158179731320600,19.991320556640623,-0.3806867221953347,9.793953600034117,0.3223892853969708
1774158179751312400,20.0113125,-0.35035120516438034,9.795909994798897,0.2963207598944194
1774158179771305500,20.031305419921875,-0.2401136281725019,9.79950480442047,0.2871117088539526
1774158179791297800,20.0512978515625,-0.11936080377926118,9.802919581300019,0.24273670668508857
1774158179811290600,20.07129052734375,-0.058968545559537594,9.804818108397722,0.18012012804597616
1774158179831282700,20.09128271484375,-0.048298445523180994,9.80586264901459,0.11441248805634677
1774158179851275800,20.11127587890625,-0.04738532186679076,9.806513806399703,0.021001631751132663
1774158179871267600,20.131267578125,-0.017129657147504623,9.80605378767252,-0.10679559244499541
1774158179891260700,20.1512607421875,0.03789965497518424,9.803172094756365,-0.2584052177969366
1774158179911252500,20.17125244140625,0.10054044104036874,9.796749368232488,-0.4289318803284317
1774158179931245600,20.19124560546875,0.16156709274007006,9.786699098861217,-0.6040092284342273
1774158179951237400,20.2112373046875,0.223358673530817,9.7736023014009,-0.7727734478704631
1774158179971230500,20.23123046875,0.2875359621480107,9.75567969121933,-0.9562653904370964
1774158179991222500,20.251222412109374,0.3017452874274924,9.734574359348416,-1.1477790191568433
1774158180011215400,20.27121533203125,0.2328081091984175,9.711001176059245,-1.3463415434747934
1774158180031207700,20.291207763671874,0.10995100600230506,9.678529231521487,-1.5761846105888484
1774158180051200500,20.311200439453124,-0.0440318238875363,9.635025605359672,-1.8261328926205633
1774158180071192600,20.331192626953126,-0.17252422955688088,9.588369068124889,-2.050316326537728
1774158180091185700,20.351185546875,-0.1989488202217966,9.549847322028874,-2.2206413290172815
1774158180111177500,20.371177490234373,-0.0602467899010051,9.527404019552469,-2.322786821500957
1774158180131170600,20.391170654296875,0.14849704628936014,9.514764902731775,-2.3701395243063565
1774158180151162600,20.41116259765625,0.22205391107518224,9.502029339799284,-2.4150582779631016
1774158180171155500,20.431155517578127,0.10947882191329263,9.48430079088509,-2.4912778865516185
1774158180191147500,20.4511474609375,-0.08866208859225734,9.456772147968412,-2.594613465602696
1774158180211140600,20.471140625,-0.1955650960676372,9.421923537427187,-2.71283740170598
1774158180231132400,20.49113232421875,-0.11738880045339464,9.399055287536978,-2.7954171929761764
1774158180251125500,20.51112548828125,-0.05841971147116273,9.397380047801136,-2.8028923511624333
1774158180271117600,20.53111767578125,-0.021890746627561748,9.412104738724231,-2.753574778024852
1774158180291110400,20.5511103515625,0.04761903472454287,9.429988770461081,-2.6913632365226743
1774158180311102700,20.571102783203123,0.13407788678463547,9.445237192997336,-2.634372644539177
1774158180331095600,20.591095458984373,0.19641049738321453,9.460846850061417,-2.5737489567503333
1774158180351087600,20.611087646484375,0.21433208465147763,9.482676989075541,-2.490636958299577
1774158180371080700,20.631080810546877,0.2021037223224528,9.503795180428028,-2.4098569099277256
1774158180391072500,20.651072509765626,0.16164782982608303,9.511989008277654,-2.380401244471222
1774158180411065600,20.671065673828124,0.0543233135695802,9.511915358519554,-2.385558627234399
1774158180431057400,20.691057373046874,-0.11136493705399333,9.505890106880663,-2.4074967566676437
1774158180451050500,20.711050537109376,-0.30795060834102334,9.491583349108696,-2.446508770498633
1774158180471042600,20.73104248046875,-0.5155870312787592,9.475008646404742,-2.47563637304455
1774158180491035400,20.751035400390624,-0.6749941877722739,9.470404952001571,-2.454837038382888
1774158180511027500,20.77102734375,-0.690618677079305,9.485057162210344,-2.3931425064921377
1774158180531020500,20.7910205078125,-0.6774095783509314,9.500931607690452,-2.333197156356275
1774158180551012600,20.8110126953125,-0.7369500009477138,9.511129761099815,-2.272823205544799
1774158180571004700,20.831004638671875,-0.797813196580857,9.520605445453524,-2.2117773468211293
1774158180590997500,20.85099755859375,-0.82890654624179,9.5301056797266,-2.15879102204293
1774158180610989600,20.870989501953126,-0.8486899087939411,9.53982043353319,-2.1075893887244166
1774158180630982700,20.890982666015624,-0.8946340599756687,9.545951483634113,-2.0602928000204264
1774158180650974500,20.910974365234374,-0.9450369441319256,9.551882042726874,-2.0096903016388414
1774158180670967600,20.930967529296876,-0.9284694018211215,9.568254500856995,-1.9382529588907955
1774158180690959400,20.95095947265625,-0.9035378627255558,9.586078326839209,-1.8604060413613914
1774158180710952400,20.970952392578123,-0.9539988337446004,9.592419804820418,-1.8015964172571897
1774158180730944500,20.990944580078125,-1.0072281734984367,9.598466683769226,-1.7393405982218682
1774158180750937300,21.010937255859375,-0.9851886295173317,9.615364042556285,-1.6566656760141252
1774158180770929700,21.0309296875,-0.989014544481039,9.632124038699269,-1.5538416997469962
1774158180790922800,21.0509228515625,-1.0327184424553066,9.641956865927577,-1.4617030758842826
1774158180810914600,21.07091455078125,-1.0199414515338838,9.650354691916704,-1.4144792601555585
1774158180830907600,21.09090771484375,-0.9489484915524721,9.660344171011447,-1.3955707076765596
1774158180850899500,21.1108994140625,-0.8843632066562771,9.668183194074034,-1.3836596128694711
1774158180870893300,21.130893310546874,-0.8544226072270422,9.670288641920685,-1.3877546270981431
1774158180890885000,21.150885009765624,-0.8526485832918435,9.667584643658994,-1.4075437618039548
1774158180910878200,21.170878173828125,-0.8580559222280979,9.664607673674821,-1.424596895674616
1774158180930870300,21.190870361328123,-0.8532582396227866,9.66244786529243,-1.4420162325091659
1774158180950863000,21.210863037109377,-0.8445450640741735,9.661025139012931,-1.4566159818783402
1774158180970855200,21.230855224609375,-0.8580834678221494,9.658898063856363,-1.4627936475999652
1774158180990848300,21.25084814453125,-0.9105259680472314,9.650890113967657,-1.4837977110534906
1774158181010840000,21.270840087890626,-0.9899822204694151,9.63646703633964,-1.5260454919353126
1774158181030833200,21.290833251953124,-1.0699570899382234,9.619696518802643,-1.577028367936611
1774158181050825200,21.3108251953125,-1.1391069062709807,9.603003742676973,-1.6294579356148837
1774158181070818300,21.330818359375,-1.2009067251671104,9.586715455698966,-1.6802030573375522
1774158181090810400,21.350810302734374,-1.248942368735373,9.571481646209955,-1.7312601676188408
1774158181110803200,21.37080322265625,-1.2754165341630577,9.559163431906699,-1.7793441073082386
1774158181130795300,21.390795166015625,-1.2840921541802583,9.551905423602461,-1.811796470362693
1774158181150788400,21.410788330078127,-1.2912461175881325,9.546925297102332,-1.8328432039141653
1774158181170780200,21.4307802734375,-1.3069617192447185,9.539589547386765,-1.8596946782216428
1774158181190773200,21.450773193359375,-1.3260998426958919,9.528001400923728,-1.9050053538054226
1774158181210765000,21.47076513671875,-1.3503316360242663,9.51119581207335,-1.9708289483249186
1774158181230758100,21.490758056640626,-1.3763681406870483,9.490198616752028,-2.052346517191082
1774158181250750200,21.510750244140624,-1.3960831872433423,9.468687042167781,-2.136654885819554
1774158181270742300,21.5307421875,-1.4328117663122713,9.442913718485832,-2.2245950350791213
1774158181290735400,21.5507353515625,-1.5460446161299943,9.404699430903792,-2.3090610784873364
1774158181310727200,21.57072705078125,-1.6783796413026748,9.371111634078622,-2.3528064044505355
1774158181330720300,21.59072021484375,-1.601151147932559,9.377403427699207,-2.3813885019429026
1774158181350712300,21.61071240234375,-1.4735557185024022,9.39785877122879,-2.3831243858247992
1774158181370705200,21.630705078125,-1.4112718424163757,9.423861812013387,-2.317220857936889
1774158181390697200,21.650697265625,-1.2790860164560376,9.4717861772269,-2.1953537430256604
1774158181410690300,21.670690185546874,-1.0049081330530345,9.538300676620006,-2.04483906417042
1774158181430682000,21.69068212890625,-0.6735064334325492,9.59853273474276,-1.893401571381837
1774158181450675200,21.71067529296875,-0.44378140320759263,9.634046531194448,-1.777239828505367
1774158181470667000,21.7306669921875,-0.3674370722608641,9.647928341552614,-1.7183906030431388
1774158181490660000,21.75066015625,-0.390166242473945,9.652315178334712,-1.6884855863839388
1774158181510652400,21.77065234375,-0.452128010466136,9.650649875470995,-1.682545090419054
1774158181530645200,21.790645263671873,-0.5345158228281885,9.644686583152414,-1.6925424605593085
1774158181550637300,21.81063720703125,-0.6664409520257264,9.633956514823437,-1.7067878435328603
1774158181570630400,21.83063037109375,-0.8677879194304347,9.613077977445721,-1.7337959697067737
1774158181590622200,21.850622314453126,-1.1244039157230405,9.579046528506279,-1.774256867171824
1774158181610615300,21.870615234375,-1.4101371392980218,9.53568201855421,-1.8035146719686685
1774158181630607000,21.890607177734374,-1.6809243573494255,9.49295522198379,-1.7968517069481311
1774158181650600200,21.91060009765625,-1.8881109176278112,9.46030090661645,-1.7629884541824459
1774158181670592300,21.93059228515625,-2.0292812834240497,9.441205745524167,-1.7076419761441648
1774158181690585000,21.950585205078124,-2.0826858336143195,9.43620399171412,-1.670590448731184
1774158181710577200,21.9705771484375,-2.0596606395967303,9.443599947184323,-1.657285999869555
1774158181730570000,21.990570068359375,-2.048953806012869,9.453891039574145,-1.6112424799665808
1774158181750562300,22.010562255859377,-2.027981160610914,9.472471236881614,-1.526426892468333
1774158181770555100,22.03055517578125,-1.9592333492077887,9.507694525954127,-1.3912261026009916
1774158181790547200,22.050547119140624,-1.8621343264587222,9.553696983194351,-1.1957041150227188
1774158181810540300,22.070540283203126,-1.7602398861266673,9.596659926608204,-0.9879591171439737
1774158181830532400,22.090532470703124,-1.6704752979189157,9.628823828110098,-0.8158730963412671
1774158181850525200,22.110525146484374,-1.5861423793710767,9.653809800806641,-0.6771070152077824
1774158181870516500,22.1305166015625,-1.5160470988817512,9.674676063224673,-0.5221086150672286
1774158181890509600,22.150509521484373,-1.4698429815895855,9.689478495559095,-0.35206542520374057
1774158181910501400,22.17050146484375,-1.3896106302283704,9.705684364950656,-0.19763212986635043
1774158181930494500,22.190494384765625,-1.2359648137405514,9.727774031683802,-0.1148224570967257
1774158181950486800,22.21048681640625,-1.0874629360124468,9.74562533019483,-0.10299274782962164
1774158181970479600,22.230479736328125,-0.9673201606757938,9.758073892879485,-0.12112764905500226
1774158181990471700,22.2504716796875,-0.8709523017454892,9.767069684761761,-0.1272335281820502
1774158182010463500,22.27046337890625,-0.8277010429095476,9.771057293093204,-0.10838213098407723
1774158182030456600,22.29045654296875,-0.8644207810848951,9.768072139802575,-0.08896505359420552
1774158182050448600,22.31044873046875,-0.9691918728318065,9.758281398150324,-0.08348173594544642
1774158182070441500,22.33044140625,-1.1195923507228493,9.74217782008946,-0.08288933214340359
1774158182090433500,22.35043359375,-1.2980290557265282,9.719976509675384,-0.08691090667652897
1774158182110426600,22.370426513671877,-1.4629638896003365,9.696121002313495,-0.12389387149848043
1774158182130418400,22.39041845703125,-1.5392865201719104,9.682808516275882,-0.2102486329964362
1774158182150411500,22.41041162109375,-1.533304961544275,9.68163538084328,-0.292061586346291
1774158182170403600,22.430403564453126,-1.5280695451088249,9.6808918689996,-0.34016901650913056
1774158182190396700,22.450396728515624,-1.526043884500116,9.679784784540534,-0.37863055685050784
1774158182210388700,22.470388671875,-1.5197475608348845,9.679301384937762,-0.4145855577310547
1774158182230381600,22.490381591796876,-1.535205096077174,9.674873631623386,-0.4586384152734652
1774158182250373600,22.51037353515625,-1.5801894623160362,9.664360420915484,-0.5229972344700247
1774158182270366700,22.53036669921875,-1.622308940643072,9.65371803086996,-0.5867143582295626
1774158182290358500,22.550358642578125,-1.6299530256554484,9.649655019214748,-0.6307260800439864
1774158182310351600,22.5703515625,-1.6211301061220467,9.64799263896048,-0.677181395618245
1774158182330343400,22.590343505859376,-1.6076428480394183,9.645992405053972,-0.7353233495939523
1774158182350336500,22.61033642578125,-1.576348715109378,9.64762146756053,-0.780312392007932
1774158182370328600,22.63032861328125,-1.5313770622216165,9.653266195449232,-0.7998368844281881
1774158182390321400,22.6503212890625,-1.4622697698563336,9.663892218881845,-0.8008470113188028
1774158182410313700,22.670313720703124,-1.3411416367441416,9.68445511443913,-0.7635762881971895
1774158182430306600,22.690306640625,-1.2239462399709968,9.70439140253067,-0.7050774105425923
1774158182450298600,22.710298583984375,-1.1172440340310335,9.720583243396877,-0.6575650601960719
1774158182470291700,22.730291748046874,-1.0389428699281067,9.732302907285094,-0.6109613856596872
1774158182490283500,22.750283447265623,-1.0063578934699295,9.737879830634594,-0.5755963865615427
1774158182510276600,22.770276611328125,-1.0374060888148844,9.735464586186408,-0.5611870451979338
1774158182530268700,22.7902685546875,-1.1349879266448317,9.723883453986048,-0.5729710795592516
1774158182550261500,22.810261474609376,-1.2560994008831678,9.707845926898717,-0.5918871212249621
1774158182570253600,22.830253662109374,-1.34025871642977,9.695282797923683,-0.612856405626051
1774158182590246700,22.85024658203125,-1.3729863892942666,9.690255325150488,-0.6198686590082944
1774158182610238500,22.870238525390626,-1.3880188309922814,9.68829717682004,-0.6169964645728468
1774158182630230800,22.890230712890624,-1.4044552942693234,9.686008189100027,-0.6157547939486802
1774158182650223600,22.9102236328125,-1.4276368478924035,9.682770522353053,-0.6133633687674999
1774158182670215700,22.930215576171875,-1.4616455004781483,9.678404728358984,-0.6020441389063372
1774158182690208800,22.950208740234373,-1.499960618086159,9.673782329255342,-0.5817727005762979
1774158182710200600,22.97020068359375,-1.5412351700216531,9.668833182415366,-0.5555712511427701
1774158182730193700,22.990193603515625,-1.5893423444561658,9.662383567884564,-0.5316987561134621
1774158182750185500,23.010185546875,-1.6478867417529224,9.653622753801942,-0.5122914968647062
1774158182770178600,23.030178466796876,-1.727766772545129,9.640081135183571,-0.5040513091227039
1774158182790170600,23.050170654296874,-1.8166781049244105,9.623869420573115,-0.5011993537576869
1774158182810163500,23.07016357421875,-1.8685333798460662,9.614921559485792,-0.4819487098427489
1774158182830155500,23.090155517578125,-1.8750930306226015,9.615214989474415,-0.4495054799428209
1774158182850148600,23.110148681640624,-1.8624113898344337,9.619411272120475,-0.41076486693173647
1774158182870140700,23.130140625,-1.8542953033961354,9.622729018366336,-0.3675096625730395
1774158182890133500,23.150133544921875,-1.8641490272819994,9.622936523637176,-0.3072979531185701
1774158182910125800,23.170125732421877,-1.8760352799087763,9.622792146730422,-0.2296206200024113
1774158182930118700,23.19011865234375,-1.8521650133691727,9.629023150074481,-0.14761621746737508
1774158182950110700,23.21011083984375,-1.8246451382808386,9.635213821408152,-0.060923739314498376
1774158182970103800,23.230103759765626,-1.7868198500163852,9.642472998756169,0.01942821755510522
1774158182990095600,23.250095703125,-1.7382406741559504,9.651112816807627,0.07021046326763462
1774158183010088700,23.270088623046874,-1.672292138082534,9.662525022181867,0.09711357186422682
1774158183030080500,23.29008056640625,-1.583899130488932,9.677355511566995,0.10224800301007926
1774158183050073600,23.310073486328125,-1.4863712148033081,9.69293711158037,0.08976897212192415
1774158183070065700,23.330065673828123,-1.418312846969068,9.70329191685617,0.07000964346590917
1774158183090058500,23.35005859375,-1.4099476080752908,9.704564421010017,0.06199683017241768
1774158183110050600,23.370050537109375,-1.4585980956062674,9.697454296743869,0.04772808002301026
1774158183130043600,23.390043701171876,-1.5366608478434383,9.685486211052536,0.01987881771668326
1774158183150035700,23.41003564453125,-1.5673276426553726,9.680569797438382,-0.021029099713370667
1774158183170028800,23.43002880859375,-1.510061010209471,9.689494277650118,-0.06177191254247445
1774158183190020600,23.4500205078125,-1.4745011826589702,9.694483171978593,-0.11501512099145911
1774158183210013700,23.470013671875,-1.4830432394243775,9.691977911159396,-0.19109458132376894
1774158183230005800,23.490005859375,-1.5103998867750168,9.685747492337226,-0.2745560690656304
1774158183249998600,23.50999853515625,-1.5243807735934853,9.680698392254113,-0.3615870675910264
1774158183269990700,23.52999072265625,-1.5204326204895973,9.677580552494526,-0.4506589608268812
1774158183289982500,23.549982421875,-1.5184643891565501,9.673171503880619,-0.5425896775599569
1774158183309975600,23.5699755859375,-1.5275028511367736,9.666267715841531,-0.6327675227437168
1774158183329967600,23.589967529296874,-1.5461445693731306,9.658034725025296,-0.7086682015761733
1774158183349960400,23.60996044921875,-1.5582942952416836,9.65053180204928,-0.7806034839089959
1774158183369952800,23.629952880859374,-1.5668445353135465,9.641830609199404,-0.8663071062881499
1774158183389945900,23.64994580078125,-1.5734605924524365,9.633301850306987,-0.9455735352266579
1774158183409937700,23.669937744140626,-1.583238913014531,9.624370355832577,-1.0174745499636977
1774158183429930800,23.6899306640625,-1.5926893167965113,9.617005380022524,-1.0709555994562805
1774158183449922600,23.709922607421873,-1.5779166950784622,9.617542555639147,-1.0878560269832611
1774158183469915600,23.72991552734375,-1.5156452400825917,9.630829322713613,-1.0584647319998592
1774158183489907700,23.74990771484375,-1.4507348148852586,9.648155136045814,-0.9893734409213065
1774158183509900500,23.769900634765627,-1.4253550205655394,9.660167060878873,-0.9055018562749028
1774158183529892600,23.789892578125,-1.3965715552821754,9.671823011881113,-0.8220729008294642
1774158183549885700,23.8098857421875,-1.3818855889342725,9.679733346614242,-0.7506914529871195
1774158183569877500,23.82987744140625,-1.3637338461719453,9.686230891939998,-0.6982674382667988
1774158183589870600,23.84987060546875,-1.3478433263398706,9.69073755570948,-0.6658263272587209
1774158183609862700,23.869862548828124,-1.3527103478543459,9.690709498658777,-0.6562864185623825
1774158183629855700,23.889855712890625,-1.3815826604649424,9.686351887971162,-0.6604570553105324
1774158183649847800,23.909847900390623,-1.4151495606325566,9.681503278896212,-0.6604726182058454
1774158183669840600,23.929840576171873,-1.4361775894835591,9.679181557950377,-0.6490165006246418
1774158183689832700,23.949832763671875,-1.4516082367189227,9.67850409708023,-0.6243498230103403
1774158183709825800,23.96982568359375,-1.462185744834691,9.679023152518273,-0.5906896916013211
1774158183729817600,23.989817626953126,-1.4611194307774305,9.681258948746324,-0.5556335392566397
1774158183749810700,24.009810791015624,-1.4519941672965884,9.684476157227158,-0.5225222373694182
1774158183769802500,24.029802490234374,-1.448260387595743,9.686526075494289,-0.4940989837005734
1774158183789795600,24.049795654296876,-1.4539935244202613,9.686904845678805,-0.46922428935877974
1774158183809787600,24.06978759765625,-1.4729254577748476,9.68499462814331,-0.44916623805109407
1774158183829780500,24.089780517578124,-1.500633256650716,9.681408586350083,-0.4344899893796071
1774158183849772800,24.109772705078125,-1.5405752448081969,9.675282212424278,-0.4312116618286818
1774158183869765600,24.129765625,-1.5784790051363409,9.669192663377522,-0.4306950175434351
1774158183889758500,24.149758544921873,-1.608784273159504,9.664659111601114,-0.4201617504281923
1774158183909750500,24.16975048828125,-1.622836763909459,9.663269703069329,-0.3975170801607892
1774158183929743600,24.18974365234375,-1.637616984412074,9.66207260223925,-0.3646237318731844
1774158183949735400,24.2097353515625,-1.6798374388955533,9.656304540231824,-0.3229697156334296
1774158183969728500,24.229728515625,-1.7460535398639738,9.645987144356965,-0.27681765732206404
1774158183989720300,24.24972021484375,-1.8101373049788176,9.63538274823427,-0.23065199061045422
1774158184009713400,24.26971337890625,-1.8511768791146574,9.62831763215363,-0.19756463585440068
1774158184029705500,24.28970556640625,-1.811239567132294,9.636562897929549,-0.16270754974577575
1774158184049698300,24.3096982421875,-1.7189463372297584,9.654533438906073,-0.07469830817221663
1774158184069690400,24.3296904296875,-1.6136255757108329,9.672876320326328,0.0456443690841319
1774158184089683500,24.349683349609375,-1.495043766080588,9.690837508952617,0.151352572717797
1774158184109675500,24.369675537109377,-1.366714615548402,9.708443892791866,0.22049309149924665
1774158184129668400,24.38966845703125,-1.2397266504921018,9.724895261377096,0.2446863611818291
1774158184149660400,24.409660400390624,-1.1410302024837582,9.737206461417674,0.2350359413157217
1774158184169653500,24.429653564453126,-1.088572066298127,9.744092129278183,0.19503836877979336
1774158184189645600,24.4496455078125,-1.0990677413493395,9.743571904796362,0.15884181422833352
1774158184209638400,24.469638427734374,-1.1632008985638618,9.736499774453044,0.1338193180468399
1774158184229630500,24.48963037109375,-1.2453284160219131,9.726689743578433,0.10521492652427404
1774158184249623600,24.50962353515625,-1.3129589138329028,9.718127666938305,0.06727192103113047
1774158184269615400,24.529615478515623,-1.3294644968234002,9.716112819984554,0.006330573565527447
1774158184289608400,24.5496083984375,-1.289997578831762,9.72115549032688,-0.07367072325672488
1774158184309600300,24.569600341796875,-1.248842561622709,9.72559727216661,-0.1534782413685694
1774158184329593300,24.58959326171875,-1.2308208749808371,9.726237908157705,-0.23610262069916352
1774158184349585400,24.60958544921875,-1.2576084902718663,9.720436528402566,-0.3192616183631122
1774158184369578200,24.629578125,-1.3057444524094461,9.710853876543045,-0.4058561982326209
1774158184389570600,24.649570556640626,-1.3559120665051043,9.700330728963017,-0.48522659900225695
1774158184409563600,24.669563720703124,-1.4203841002851725,9.68734615970552,-0.5551674195822328
1774158184429555500,24.689555419921874,-1.4781184963732956,9.675406131064891,-0.6099728495463729
1774158184449547500,24.709547607421875,-1.5031820643506943,9.668846626418828,-0.6513273348502815
1774158184469540400,24.729540283203125,-1.4858091970063745,9.669598906090854,-0.6794347275029867
1774158184489532400,24.749532470703127,-1.446600053168088,9.674658527567981,-0.6918940307773649
1774158184509525500,24.769525390625,-1.4191886068902908,9.677978611901402,-0.7021499057233334
1774158184529517300,24.789517333984374,-1.4102658802442252,9.678238724142313,-0.7164137742016464
1774158184549510400,24.809510498046876,-1.3982773362867533,9.67906523809433,-0.728628528130427
1774158184569502500,24.82950244140625,-1.3437905438177287,9.686787941300869,-0.72853668512851
1774158184589495300,24.849495361328124,-1.2470301053732633,9.702508657523989,-0.6903891061071306
1774158184609487600,24.869487548828126,-1.1534845373220741,9.717882167744635,-0.6345443231578916
1774158184629480400,24.88948046875,-1.050797485307604,9.731875621783733,-0.5973492225557565
1774158184649472500,24.909472412109373,-0.9648957100078464,9.743154556167125,-0.5570345651609823
1774158184669465600,24.929465576171875,-0.9028992725610733,9.751050862374901,-0.5217204559998586
1774158184689457400,24.94945751953125,-0.8600877933818847,9.755607795026897,-0.5086525193078443
1774158184709450500,24.969450439453126,-0.860310423156619,9.75571300896704,-0.5062962019726633
1774158184729442300,24.9894423828125,-0.9241220933318137,9.750005737236142,-0.5037367267481982
1774158184749435400,25.009435302734374,-1.0383320445533841,9.737317520576715,-0.526203483165428
1774158184769427500,25.029427490234376,-1.1660277194876223,9.721113989272713,-0.5574221762390807
1774158184789420300,25.049420166015626,-1.2213007669635116,9.713580671158432,-0.5702259090369567
1774158184809412400,25.069412353515624,-1.2083080143995582,9.71578607224822,-0.560268651711382
1774158184829405400,25.089405517578125,-1.1966570318333805,9.718374919697641,-0.5399896876620128
1774158184849397500,25.1093974609375,-1.2061069241587072,9.71789385818243,-0.5274652101969346
1774158184869390300,25.129390380859373,-1.2416682860791683,9.714061148151755,-0.5154206982685253
1774158184889382400,25.14938232421875,-1.2926228127688169,9.708199562641978,-0.5003591766064986
1774158184909375200,25.169375244140625,-1.349232150349766,9.701337860178947,-0.48373709109686314
1774158184929367300,25.1893671875,-1.413996298944205,9.692758832404017,-0.4705431168723851
1774158184949360400,25.2093603515625,-1.4867574376419186,9.682019411724806,-0.4673743506431579
1774158184969352200,25.229352294921874,-1.5617780457042156,9.669807580405474,-0.4754735590118915
