time,seconds_elapsed,z,y,x
1774158159798745600,0.05874560546875,0.1168370246887207,-0.0017105527222156525,-0.032741278409957886
1774158159818738400,0.078738525390625,0.09658144414424896,-0.04692705720663071,-0.020958907902240753
1774158159838731500,0.0987314453125,0.08076130598783493,-0.1070830449461937,0.050234563648700714
1774158159858721500,0.118721435546875,0.09954290837049484,-0.1597965806722641,0.11220911145210266
1774158159878714600,0.138714599609375,0.16930535435676575,-0.21661405265331268,0.11318741738796234
1774158159898707500,0.15870751953125,0.300503134727478,-0.33906304836273193,0.060689620673656464
1774158159918699500,0.178699462890625,0.6376103162765503,-0.5156852602958679,-0.13814197480678558
1774158159938692400,0.1986923828125,0.866336464881897,-0.6018030047416687,-0.2722918391227722
1774158159958684400,0.218684326171875,1.1330740451812744,-0.737619161605835,-0.2329377830028534
1774158159978677500,0.238677490234375,1.3399864435195923,-0.6969193816184998,0.15104304254055023
1774158159998670300,0.25867041015625,1.3298121690750122,-0.6568703055381775,0.7308050394058228
1774158160018662400,0.278662353515625,1.3375033140182495,-0.4718879461288452,1.2618882656097412
1774158160038655500,0.298655517578125,1.4626433849334717,-0.4062945544719696,1.419555425643921
1774158160058648300,0.3186484375,1.5910760164260864,-0.40148136019706726,1.3015367984771729
1774158160078640400,0.338640380859375,1.6585044860839844,-0.45327451825141907,1.050383448600769
1774158160098633500,0.358633544921875,1.658884882926941,-0.444074422121048,0.7015389204025269
1774158160118626300,0.378626220703125,1.6412335634231567,-0.3622753918170929,0.25658854842185974
1774158160138618400,0.398618408203125,1.6493585109710693,-0.3802642822265625,-0.17328320443630219
1774158160158611500,0.418611572265625,1.6738007068634033,-0.43513765931129456,-0.4658692479133606
1774158160178603500,0.438603515625,1.688918113708496,-0.4151686728000641,-0.5342551469802856
1774158160198596400,0.458596435546875,1.6804994344711304,-0.2859814465045929,-0.39218947291374207
1774158160218589400,0.47858935546875,1.5891088247299194,-0.17840412259101868,-0.17559348046779633
1774158160238581500,0.49858154296875,1.365018606185913,-0.28874367475509644,0.015068868175148964
1774158160258574600,0.51857470703125,1.168177843093872,-0.38849371671676636,0.1603301763534546
1774158160278567700,0.538567626953125,1.1758276224136353,-0.3739216923713684,0.23595984280109406
1774158160298559500,0.5585595703125,1.1583654880523682,-0.3424516022205353,0.2887760400772095
1774158160318552600,0.578552490234375,1.0002113580703735,-0.20760458707809448,0.3976709544658661
1774158160338545700,0.598545654296875,0.905333936214447,-0.13425016403198242,0.4317363500595093
1774158160358537500,0.618537353515625,0.8871883153915405,-0.13581645488739014,0.37676385045051575
1774158160378530600,0.638530517578125,0.7426244616508484,-0.2007773518562317,0.3281662166118622
1774158160398522400,0.6585224609375,0.5947279334068298,-0.2692831754684448,0.4056800603866577
1774158160418515500,0.678515380859375,0.5360739231109619,-0.2583615481853485,0.5347838401794434
1774158160438508500,0.698508544921875,0.45654022693634033,-0.1537366360425949,0.5938241481781006
1774158160458500400,0.718500244140625,0.3594736158847809,-0.05785878375172615,0.5600035786628723
1774158160478493400,0.738493408203125,0.21648700535297394,-0.0013582806568592787,0.4700186848640442
1774158160498486500,0.758486572265625,0.07812592387199402,0.01286491472274065,0.41799089312553406
1774158160518478300,0.778478271484375,0.026084106415510178,0.006426179315894842,0.4107339084148407
1774158160538471400,0.798471435546875,0.0029392135329544544,-0.03924780711531639,0.3580714762210846
1774158160558463200,0.818463134765625,-0.023921430110931396,-0.04961229860782623,0.263857364654541
1774158160578456300,0.838456298828125,-0.09180368483066559,-0.06248149275779724,0.10682287812232971
1774158160598449400,0.858449462890625,-0.21668626368045807,-0.08337216824293137,-0.046033360064029694
1774158160618441200,0.878441162109375,-0.35715749859809875,-0.0874432772397995,-0.06465008854866028
1774158160638434300,0.898434326171875,-0.49439549446105957,-0.016834652051329613,-0.001987089868634939
1774158160658427400,0.918427490234375,-0.5856079459190369,0.1564881056547165,0.049825116991996765
1774158160678419500,0.93841943359375,-0.6035723686218262,0.3466138243675232,0.042749643325805664
1774158160698412500,0.95841259765625,-0.5839056968688965,0.3928828239440918,0.00778431911021471
1774158160718405400,0.9784052734375,-0.5629227161407471,0.27674368023872375,-0.03971714526414871
1774158160738397400,0.9983974609375,-0.5910823345184326,0.03679824247956276,-0.10269387811422348
1774158160758390500,1.018390625,-0.6399579048156738,-0.18693630397319794,-0.1649094521999359
1774158160778382600,1.038382568359375,-0.6332330703735352,-0.25700172781944275,-0.2000304013490677
1774158160798375400,1.05837548828125,-0.518896222114563,-0.25917428731918335,-0.1525300145149231
1774158160818368500,1.078368408203125,-0.3915879726409912,-0.2589639723300934,-0.0837145447731018
1774158160838360600,1.098360595703125,-0.4369250237941742,-0.23509754240512848,-0.09603419154882431
1774158160858354200,1.118354248046875,-0.5331478118896484,-0.16757622361183167,-0.19786539673805237
1774158160878347300,1.13834716796875,-0.4855647683143616,-0.10330560803413391,-0.26721546053886414
1774158160898339000,1.158339111328125,-0.36382728815078735,-0.12321465462446213,-0.21847942471504211
1774158160918332200,1.178332275390625,-0.24986204504966736,-0.19785502552986145,-0.12466493993997574
1774158160938324000,1.198323974609375,-0.21123172342777252,-0.2513497471809387,-0.06009269878268242
1774158160958317000,1.218317138671875,-0.24444171786308289,-0.22082245349884033,-0.054098594933748245
1774158160978310100,1.23831005859375,-0.2949727773666382,-0.12430492043495178,-0.05721905454993248
1774158160998302000,1.258302001953125,-0.3453536033630371,-0.05565958842635155,-0.049830351024866104
1774158161018295000,1.278294921875,-0.4444873631000519,-0.04206813871860504,-0.07239558547735214
1774158161038288100,1.2982880859375,-0.5708202719688416,-0.11212369054555893,-0.20102664828300476
1774158161058280000,1.318280029296875,-0.6754089593887329,-0.23147164285182953,-0.3238111436367035
1774158161078273000,1.33827294921875,-0.7910396456718445,-0.23676617443561554,-0.33241280913352966
1774158161098265000,1.35826513671875,-0.8152666687965393,-0.10861675441265106,-0.2585773468017578
1774158161118258000,1.3782578125,-0.7064909338951111,-0.03477130085229874,-0.19072771072387695
1774158161138251000,1.3982509765625,-0.6217990517616272,-0.05814167857170105,-0.1805509328842163
1774158161158243000,1.4182431640625,-0.5805697441101074,-0.1270708441734314,-0.18379433453083038
1774158161178236000,1.43823583984375,-0.5175567865371704,-0.19478896260261536,-0.2290850579738617
1774158161198229000,1.45822900390625,-0.4337935149669647,-0.23570260405540466,-0.2657006084918976
1774158161218221300,1.47822119140625,-0.39376118779182434,-0.24115854501724243,-0.2927960157394409
1774158161238214000,1.4982138671875,-0.4078007638454437,-0.1695067435503006,-0.32232317328453064
1774158161258207000,1.51820703125,-0.36234256625175476,-0.112071193754673,-0.3369829058647156
1774158161278199000,1.538198974609375,-0.23935528099536896,-0.15906371176242828,-0.27291736006736755
1774158161298192100,1.558192138671875,-0.10053642094135284,-0.2769884765148163,-0.2133994698524475
1774158161318184200,1.57818408203125,-0.021580396220088005,-0.2518269419670105,-0.13164828717708588
1774158161338177000,1.598177001953125,0.012042878195643425,-0.10706489533185959,-0.05358985811471939
1774158161358170000,1.618170166015625,0.025445260107517242,0.002117698546499014,-0.00814735982567072
1774158161378162200,1.638162109375,0.05804955214262009,-0.043121710419654846,-0.017519673332571983
1774158161398155000,1.658155029296875,0.04852519929409027,-0.14851680397987366,-0.028117213398218155
1774158161418148000,1.678148193359375,0.024530809372663498,-0.15606556832790375,-0.02726605348289013
1774158161438140200,1.69814013671875,-0.0071948012337088585,-0.1028447151184082,-0.023737875744700432
1774158161458133000,1.718133056640625,-0.05153677612543106,-0.061819154769182205,-0.03265606239438057
1774158161478125000,1.738125,-0.061275821179151535,-0.026928875595331192,-0.05997459962964058
1774158161498118100,1.7581181640625,-0.10361988097429276,-0.04127080738544464,-0.0988631322979927
1774158161518111000,1.778111083984375,-0.14309737086296082,-0.0633227527141571,-0.15931536257266998
1774158161538103000,1.79810302734375,-0.2185283899307251,-0.060549117624759674,-0.2073608785867691
1774158161558096100,1.81809619140625,-0.2582290768623352,-0.07215413451194763,-0.24097183346748352
1774158161578089000,1.8380888671875,-0.2208040952682495,-0.14315538108348846,-0.26480603218078613
1774158161598081000,1.8580810546875,-0.1694297045469284,-0.19953414797782898,-0.23415310680866241
1774158161618074000,1.87807421875,-0.1235206201672554,-0.12950320541858673,-0.09965808689594269
1774158161638066200,1.898066162109375,-0.019962336868047714,-0.011659848503768444,0.06941784173250198
1774158161658059000,1.91805908203125,0.07718849182128906,-0.047133706510066986,0.08634237200021744
1774158161678052000,1.938052001953125,0.0517415776848793,-0.22040565311908722,0.032217372208833694
1774158161698044200,1.958044189453125,-0.07736975699663162,-0.3316730856895447,-0.03435591608285904
1774158161718037200,1.978037353515625,-0.23599490523338318,-0.3557003438472748,-0.14585557579994202
1774158161738030000,1.998030029296875,-0.37144482135772705,-0.36557501554489136,-0.26944583654403687
1774158161758022100,2.018022216796875,-0.4524345397949219,-0.3134351074695587,-0.39568835496902466
1774158161778015200,2.03801513671875,-0.49057215452194214,-0.2107473760843277,-0.4609125852584839
1774158161798007000,2.058007080078125,-0.47347378730773926,-0.09915511310100555,-0.4074392318725586
1774158161818000100,2.078000244140625,-0.35153645277023315,-0.07475067675113678,-0.2636811435222626
1774158161837993200,2.0979931640625,-0.19268876314163208,-0.11778895556926727,-0.08455586433410645
1774158161857984500,2.117984619140625,-0.06506708264350891,-0.15884192287921906,0.026272553950548172
1774158161877977600,2.1379775390625,-0.028819426894187927,-0.1810539811849594,-0.005764232482761145
1774158161897970700,2.157970703125,-0.06207635998725891,-0.11177842319011688,-0.102828249335289
1774158161917962500,2.17796240234375,0.008575181476771832,-0.006240577902644873,-0.12354748696088791
1774158161937955600,2.19795556640625,0.2840026617050171,-0.016568606719374657,-0.016035128384828568
1774158161957948700,2.21794873046875,0.5820410251617432,-0.04836645722389221,0.15434791147708893
1774158161977940500,2.2379404296875,0.7539564967155457,-0.06917963922023773,0.2840197682380676
1774158161997933600,2.25793359375,0.8089913129806519,-0.2157909870147705,0.2948435842990875
1774158162017925600,2.277925537109375,0.7766782641410828,-0.3935161828994751,0.24917258322238922
1774158162037918500,2.29791845703125,0.6670251488685608,-0.36817479133605957,0.2061544954776764
1774158162057911600,2.31791162109375,0.5307328104972839,-0.1388431191444397,0.17130866646766663
1774158162077904000,2.33790380859375,0.4443559944629669,0.11622161418199539,0.13777004182338715
1774158162097896400,2.357896484375,0.43942826986312866,0.18269838392734528,0.09881851822137833
1774158162117889500,2.3778896484375,0.46853816509246826,0.15292532742023468,0.14464764297008514
1774158162137881900,2.3978818359375,0.5503276586532593,0.11710528284311295,0.31655868887901306
1774158162157874700,2.417874755859375,0.6448071002960205,0.11043299734592438,0.4358798563480377
1774158162177866800,2.43786669921875,0.7927729487419128,0.16083841025829315,0.4847123920917511
1774158162197859800,2.45785986328125,0.8901217579841614,0.12463323771953583,0.5286268591880798
1774158162217852700,2.477852783203125,0.9451248645782471,0.036844540387392044,0.5880861878395081
1774158162237844700,2.4978447265625,0.9877773523330688,-0.05374046042561531,0.6421781778335571
1774158162257837800,2.517837890625,1.0360313653945923,-0.08561190217733383,0.7176347374916077
1774158162277830700,2.53783056640625,1.1173659563064575,0.02148554101586342,0.847760796546936
1774158162297822700,2.55782275390625,1.1909208297729492,0.1986677497625351,0.9814308881759644
1774158162317815600,2.577815673828125,1.1201577186584473,0.26714885234832764,1.007564663887024
1774158162337807600,2.5978076171875,1.0594593286514282,0.23985862731933594,0.8704578280448914
1774158162357800700,2.61780078125,1.0813030004501343,0.20479364693164825,0.6010055541992188
1774158162377793500,2.63779345703125,1.148532509803772,0.14107562601566315,0.29452261328697205
1774158162397785600,2.65778564453125,1.226291298866272,0.017882827669382095,-0.040728747844696045
1774158162417778700,2.67777880859375,1.359363317489624,-0.0323156863451004,-0.22958384454250336
1774158162437771500,2.697771484375,1.547369122505188,0.12133383750915527,-0.28717631101608276
1774158162457763600,2.717763671875,1.5093433856964111,0.2282685488462448,-0.1365641951560974
1774158162477756700,2.737756591796875,1.2418649196624756,0.5565683841705322,0.16578927636146545
1774158162497748700,2.757748779296875,0.9906954169273376,0.8441929221153259,0.4424005150794983
1774158162517741600,2.777741455078125,0.9228687286376953,0.9305928349494934,0.5308580994606018
1774158162537734700,2.797734619140625,0.8675338625907898,0.5869705080986023,0.4718858301639557
1774158162557726700,2.817726806640625,0.7042572498321533,0.20592595636844635,0.36315974593162537
1774158162577719800,2.8377197265625,0.5452130436897278,0.06927970051765442,0.24501313269138336
1774158162597712600,2.857712646484375,0.32802122831344604,0.25029072165489197,0.15092086791992188
1774158162617704700,2.87770458984375,0.07321011275053024,0.476926326751709,0.0940752625465393
1774158162637697800,2.89769775390625,-0.04707812890410423,0.7850172519683838,0.0360838919878006
1774158162657689600,2.917689697265625,-0.08782372623682022,0.8502496480941772,-0.16915534436702728
1774158162677682700,2.9376826171875,-0.14661215245723724,0.7574748992919922,-0.5043755173683167
1774158162697675800,2.95767578125,-0.17348524928092957,0.5100182294845581,-0.771095335483551
1774158162717667600,2.97766748046875,-0.1423816829919815,0.2444949597120285,-0.893321692943573
1774158162737660700,2.99766064453125,-0.07008401304483414,0.18003155291080475,-0.9206475615501404
1774158162757653800,3.01765380859375,-0.01830424554646015,0.2986215651035309,-0.8788037300109863
1774158162777645600,3.0376455078125,-0.0595385916531086,0.29940110445022583,-0.7194374799728394
1774158162797638700,3.057638671875,-0.20868030190467834,0.1792362779378891,-0.5810677409172058
1774158162817630700,3.077630615234375,-0.2829848527908325,0.19076648354530334,-0.5421817898750305
1774158162837623600,3.09762353515625,-0.32781848311424255,0.30106282234191895,-0.4967421889305115
1774158162857616600,3.11761669921875,-0.3059631288051605,0.3302233815193176,-0.42811453342437744
1774158162877608400,3.1376083984375,-0.29962441325187683,0.28991827368736267,-0.37409695982933044
1774158162897601500,3.1576015625,-0.28678014874458313,0.2762165665626526,-0.4244120419025421
1774158162917594600,3.1775947265625,-0.30311664938926697,0.25190621614456177,-0.5980689525604248
1774158162937586400,3.19758642578125,-0.4385942220687866,0.18359027802944183,-0.7250728607177734
1774158162957579500,3.21757958984375,-0.5760861039161682,0.11101702600717545,-0.6703873872756958
1774158162977571800,3.23757177734375,-0.6306869983673096,0.1461864709854126,-0.47869279980659485
1774158162997564700,3.257564697265625,-0.5838315486907959,0.2246040552854538,-0.28379732370376587
1774158163017557500,3.2775576171875,-0.5246273875236511,0.4952976405620575,0.0471174493432045
1774158163037549800,3.2975498046875,-0.7052183747291565,0.7246865630149841,0.4608745872974396
1774158163057542700,3.317542724609375,-0.8784811496734619,0.3988431692123413,0.6018154621124268
1774158163077535700,3.33753564453125,-0.7580560445785522,0.04336240142583847,0.6214650273323059
1774158163097527800,3.35752783203125,-0.330658882856369,0.03756725788116455,0.6334282755851746
1774158163117520600,3.377520751953125,-0.010738356038928032,0.003690846497192979,0.4959529638290405
1774158163137512700,3.3975126953125,-0.06217266991734505,-0.06078215688467026,0.31787627935409546
1774158163157505800,3.417505859375,-0.2781446874141693,0.03918967396020889,0.19936975836753845
1774158163177498600,3.43749853515625,-0.2547418475151062,0.1876247227191925,0.11600387096405029
1774158163197490700,3.45749072265625,-0.07869981229305267,0.194139301776886,-0.05447661876678467
1774158163217483800,3.47748388671875,-0.07818017899990082,0.2581033408641815,-0.30371028184890747
1774158163237476600,3.4974765625,-0.14822538197040558,0.3541952669620514,-0.49321189522743225
1774158163257468700,3.51746875,-0.20243395864963531,0.09086973965167999,-0.5862714648246765
1774158163277461800,3.537461669921875,-0.28735634684562683,-0.2369103878736496,-0.5851981043815613
1774158163297453600,3.55745361328125,-0.3281135559082031,-0.259108304977417,-0.5565077662467957
1774158163317446700,3.57744677734375,-0.285712331533432,0.053344909101724625,-0.42562568187713623
1774158163337439500,3.597439453125,-0.07455751299858093,0.3369005024433136,-0.22361348569393158
1774158163357431600,3.617431640625,0.04676240682601929,0.21331359446048737,-0.09601625055074692
1774158163377424600,3.637424560546875,-0.12450654059648514,-0.004456045106053352,-0.06337426602840424
1774158163397417500,3.65741748046875,-0.3258053958415985,-0.16998374462127686,-0.012789525091648102
1774158163417409500,3.677409423828125,-0.4614650011062622,-0.3469143807888031,0.04881156235933304
1774158163437402600,3.697402587890625,-0.6126731038093567,-0.35019028186798096,0.05510418862104416
1774158163457394700,3.717394775390625,-0.7452187538146973,-0.2966085374355316,0.10340885818004608
1774158163477387800,3.7373876953125,-1.192457914352417,-0.20471113920211792,0.2083858847618103
1774158163497380600,3.757380615234375,-1.67740797996521,-0.29802557826042175,0.3813905417919159
1774158163517372700,3.77737255859375,-1.3824350833892822,-0.3546258211135864,0.34151506423950195
1774158163537365800,3.79736572265625,0.3483894467353821,0.008554551750421524,-0.14359812438488007
1774158163557358800,3.81735888671875,0.6745267510414124,-0.1010156124830246,-0.19654403626918793
1774158163577350700,3.8373505859375,0.566193699836731,-0.24790436029434204,0.07422327250242233
1774158163597343700,3.85734375,0.4762461185455322,-0.5412387251853943,0.4879530668258667
1774158163617335600,3.87733544921875,0.6203190088272095,-1.0563114881515503,0.7451216578483582
1774158163637328600,3.89732861328125,0.8159105181694031,-1.1637178659439087,0.8437411785125732
1774158163657321700,3.91732177734375,0.892368733882904,-0.6358715295791626,0.8740348219871521
1774158163677313500,3.9373134765625,0.8472359776496887,-0.6812124848365784,1.027686595916748
1774158163697306600,3.957306640625,0.8669232130050659,-1.234480381011963,1.1277037858963013
1774158163717299700,3.9772998046875,0.9357321262359619,-1.50127375125885,1.4178202152252197
1774158163737291500,3.99729150390625,1.1727360486984253,-1.257896065711975,1.6214141845703125
1774158163757284600,4.01728466796875,1.4446545839309692,-0.7643947005271912,1.423677921295166
1774158163777276700,4.037276611328125,1.347234845161438,0.1993228942155838,0.8686543703079224
1774158163797269500,4.05726953125,1.3326542377471924,0.13961854577064514,0.6969748735427856
1774158163817262600,4.0772626953125,1.3884285688400269,-0.4114408493041992,1.0625919103622437
1774158163837254700,4.097254638671875,1.473153829574585,-0.6766179800033569,1.3974807262420654
1774158163857247500,4.11724755859375,1.4144543409347534,-0.6868170499801636,1.4231144189834595
1774158163877239600,4.137239501953125,1.1946303844451904,-0.6297444701194763,1.2091065645217896
1774158163897232600,4.157232666015625,1.1833899021148682,-0.31319573521614075,1.0121476650238037
1774158163917225500,4.1772255859375,1.2944914102554321,-0.1532849669456482,0.9273756146430969
1774158163937217500,4.197217529296875,1.4254910945892334,-0.5334213972091675,1.0802932977676392
1774158163957210600,4.217210693359375,1.6086779832839966,-1.2822740077972412,1.3620058298110962
1774158163977203700,4.23720361328125,1.89589262008667,-2.1133954524993896,1.4772608280181885
1774158163997195500,4.257195556640625,1.914674162864685,-2.1975221633911133,1.1901812553405762
1774158164017188600,4.277188720703125,1.7329257726669312,-2.0132319927215576,0.8940408229827881
1774158164037180400,4.297180419921875,1.756938099861145,-1.567710280418396,0.6863057017326355
1774158164057173500,4.317173583984375,1.9637467861175537,-1.441065788269043,0.38099387288093567
1774158164077166600,4.33716650390625,2.13472580909729,-1.5814088582992554,0.0036250478588044643
1774158164097158400,4.357158447265625,2.0260448455810547,-2.295393943786621,-0.22753752768039703
1774158164117151500,4.3771513671875,2.159581184387207,-2.595473289489746,-0.027559354901313782
1774158164137143600,4.3971435546875,2.3537330627441406,-2.154242753982544,0.508397102355957
1774158164157136400,4.417136474609375,2.2757513523101807,-1.8647593259811401,1.1847033500671387
1774158164177129500,4.43712939453125,2.094320058822632,-2.051807165145874,1.6764633655548096
1774158164197121500,4.45712158203125,2.102430582046509,-2.056353807449341,1.932926058769226
1774158164217114400,4.4771142578125,2.531460762023926,-1.460039734840393,1.8111740350723267
1774158164237107500,4.497107421875,3.002082586288452,-0.7200583815574646,1.2373520135879517
1774158164257099500,4.517099609375,2.7019708156585693,-0.5495177507400513,0.3021288812160492
1774158164277092400,4.53709228515625,2.116614580154419,-0.806857705116272,-0.3635118305683136
1774158164297084700,4.557084716796875,1.491324782371521,-0.8074651956558228,-0.7590792775154114
1774158164317077800,4.577077880859375,1.3077335357666016,-0.3452031910419464,-0.8688931465148926
1774158164337070600,4.597070556640625,0.4648146331310272,-0.04591723904013634,0.16695988178253174
1774158164357062700,4.617062744140625,0.2876667380332947,0.2767125070095062,0.14105305075645447
1774158164377055700,4.6370556640625,0.658846914768219,-0.10273841768503189,-0.4773888885974884
1774158164397048600,4.657048583984375,1.2108796834945679,0.08300270885229111,0.013824645429849625
1774158164417040600,4.67704052734375,0.9719057679176331,-0.6826058030128479,0.9562401175498962
1774158164437033500,4.697033447265625,0.6949763894081116,-1.4685659408569336,1.3149141073226929
1774158164457025500,4.717025634765625,0.6209837198257446,-1.466520071029663,0.969857931137085
1774158164477018600,4.7370185546875,0.29740920662879944,-1.4042292833328247,0.8299367427825928
1774158164497011500,4.757011474609375,-0.15876828134059906,-1.464953899383545,1.0601749420166016
1774158164517003500,4.77700341796875,-0.3769250214099884,-1.376499056816101,0.9090717434883118
1774158164536996600,4.79699658203125,-0.7112603187561035,-1.0540903806686401,0.6812069416046143
1774158164556988400,4.816988525390625,-1.0004923343658447,-0.7156550884246826,0.9202088713645935
1774158164576981500,4.8369814453125,-1.2499170303344727,0.9461678266525269,2.494516372680664
1774158164596974600,4.856974609375,-0.4700273275375366,-0.23413722217082977,1.9544340372085571
1774158164616966400,4.87696630859375,-0.1220003291964531,-0.7110366225242615,1.0671111345291138
1774158164636959500,4.89695947265625,0.3634050190448761,-1.5729690790176392,0.9340296983718872
1774158164656952600,4.91695263671875,0.8029295206069946,-2.442399501800537,0.7379058003425598
1774158164676944400,4.9369443359375,1.0406635999679565,-1.5568151473999023,0.33821582794189453
1774158164696937500,4.9569375,1.322095274925232,-0.4202708601951599,0.11596674472093582
1774158164716929500,4.976929443359375,1.7013300657272339,-0.1782286912202835,0.32182127237319946
1774158164736922600,4.996922607421875,2.293090581893921,-0.3765515685081482,0.19363050162792206
1774158164756915500,5.01691552734375,2.935312032699585,-0.7900779247283936,-0.10368850827217102
1774158164776907500,5.036907470703125,3.094937801361084,-1.7032196521759033,-0.10041642934083939
1774158164796900600,5.056900634765625,3.1472907066345215,-1.6369210481643677,-0.13221615552902222
1774158164816892700,5.076892578125,3.2660586833953857,-0.9359565377235413,-0.7013024091720581
1774158164836885500,5.096885498046875,1.9980676174163818,-0.17129141092300415,-0.5269212126731873
1774158164856878800,5.11687890625,-0.21877902746200562,-0.04516756162047386,0.2251375913619995
1774158164876871000,5.136870849609375,-0.09040606766939163,0.36073943972587585,0.2504239082336426
1774158164896864000,5.156864013671875,0.6100792288780212,0.28423401713371277,-0.12332025915384293
1774158164916856800,5.17685693359375,0.6963711977005005,0.05039788410067558,0.2629246413707733
1774158164936849000,5.196848876953125,0.7059304714202881,-0.000734774861484766,0.3435395658016205
1774158164956841700,5.216841796875,0.4064643383026123,0.17516323924064636,0.16745389997959137
1774158164976833800,5.236833740234375,-0.06785654276609421,0.6419709324836731,-0.045464660972356796
1774158164996827000,5.256826904296875,-0.032198552042245865,1.9860249757766724,-0.8115293979644775
1774158165016819700,5.27681982421875,0.8427743911743164,1.6474345922470093,-1.3667027950286865
1774158165036811800,5.296811767578125,1.016644835472107,0.1864313930273056,-0.8597074151039124
1774158165056804900,5.316804931640625,0.6004630923271179,-0.25324055552482605,-0.3393933176994324
1774158165076797700,5.336797607421875,0.3802611231803894,0.00616487255319953,-0.3270287811756134
1774158165096789800,5.356789794921875,0.502974271774292,0.14779631793498993,-0.34758228063583374
1774158165116782800,5.376782958984375,0.8426894545555115,-0.18246150016784668,-0.2574707567691803
1774158165136774700,5.396774658203125,0.7715315818786621,-0.19022676348686218,0.39403221011161804
1774158165156767700,5.416767822265625,0.4785482883453369,-0.24806103110313416,0.8088729381561279
1774158165176760800,5.4367607421875,0.2635818421840668,-0.172274649143219,1.0299873352050781
1774158165196753000,5.4567529296875,-0.5263728499412537,0.1591261774301529,1.6892585754394531
1774158165216745700,5.476745849609375,-0.48315468430519104,-0.7250928282737732,0.7626725435256958
1774158165236737800,5.49673779296875,-0.0007125711999833584,-0.3421635925769806,0.2458595335483551
1774158165256731000,5.51673095703125,0.0998481884598732,-0.2683074474334717,0.48863568902015686
1774158165276724000,5.536723876953125,0.21074658632278442,-1.9268474578857422,0.42425990104675293
1774158165296715800,5.5567158203125,0.7365233302116394,-1.3333871364593506,-0.08390931785106659
1774158165316708900,5.576708984375,0.7786098122596741,-3.3249974250793457,-0.2821650207042694
1774158165336702000,5.596701904296875,1.0736979246139526,-2.7124435901641846,-0.5308790802955627
1774158165356693800,5.61669384765625,1.0391395092010498,-1.1591718196868896,-0.3415240943431854
1774158165376686800,5.636686767578125,0.5111729502677917,-0.5049471259117126,-0.0673091933131218
1774158165396679000,5.656678955078125,0.10131578147411346,0.32386770844459534,-0.07728911191225052
1774158165416671700,5.676671630859375,-0.11805075407028198,0.8238934874534607,0.17164018750190735
1774158165436664800,5.696664794921875,-0.22509102523326874,0.6859554052352905,0.17139899730682373
1774158165456657000,5.716656982421875,-0.37662941217422485,0.891248345375061,0.03527296334505081
1774158165476649700,5.736649658203125,-0.18669980764389038,0.3213217258453369,-0.03766831010580063
1774158165496641800,5.756641845703125,-0.23863540589809418,-0.04212917760014534,-0.14890789985656738
1774158165516634600,5.776634521484375,-0.2624478340148926,-0.12274172902107239,-0.43473777174949646
1774158165536627700,5.796627685546875,-0.13656501471996307,-0.14006955921649933,-0.11175283789634705
1774158165556619800,5.816619873046875,-0.3292953372001648,0.02921239472925663,0.5726863741874695
1774158165576612600,5.836612548828125,-0.730942964553833,0.25761064887046814,0.6493381261825562
1774158165596605000,5.85660498046875,-0.7656640410423279,0.5518481135368347,0.5646514892578125
1774158165616598000,5.876597900390625,-0.8732618689537048,0.4611552953720093,0.44044947624206543
1774158165636590600,5.896590576171875,-0.8676496148109436,0.38085535168647766,0.41013103723526
1774158165656583000,5.9165830078125,-1.2656724452972412,0.0967344120144844,0.25835973024368286
1774158165676576000,5.936575927734375,-1.1168134212493896,0.3979470133781433,0.1643267124891281
1774158165696567800,5.95656787109375,-0.12254471331834793,0.6287975907325745,-0.06500688195228577
1774158165716561000,5.976560791015625,0.6100835800170898,0.5636102557182312,0.07057450711727142
1774158165736554000,5.996553955078125,0.2829417884349823,1.5437216758728027,-0.020043369382619858
1774158165756545800,6.0165458984375,0.25684499740600586,0.4389421045780182,0.2500832974910736
1774158165776539000,6.036538818359375,0.06754235178232193,-0.1951456516981125,0.17915880680084229
1774158165796530700,6.05653076171875,0.023242363706231117,-0.11480605602264404,0.17558829486370087
1774158165816523800,6.076523681640625,0.20939002931118011,0.09079981595277786,0.0033374433405697346
1774158165836516900,6.096516845703125,0.4204208552837372,0.07497820258140564,-0.02343035116791725
1774158165856508700,6.1165087890625,0.374112993478775,0.12730644643306732,0.10185149312019348
1774158165876501800,6.136501708984375,0.4979232847690582,0.21954239904880524,0.040433645248413086
1774158165896493600,6.15649365234375,0.2905471920967102,0.1918121576309204,0.21814683079719543
1774158165916486700,6.176486572265625,0.3974127173423767,0.2650408446788788,0.4113176167011261
1774158165936479700,6.196479736328125,0.5672299861907959,0.36444470286369324,0.5870019197463989
1774158165956471800,6.216471923828125,1.1358660459518433,0.25644922256469727,0.7043696045875549
1774158165976464600,6.236464599609375,0.25263020396232605,0.42499005794525146,0.7160763144493103
1774158165996457000,6.25645703125,0.36697888374328613,0.4021369218826294,0.3654305636882782
1774158166016449800,6.27644970703125,0.47387394309043884,0.24158158898353577,0.18800197541713715
1774158166036443000,6.29644287109375,0.7617699503898621,0.311298131942749,0.13728085160255432
1774158166056435000,6.31643505859375,0.9457420110702515,0.40133634209632874,0.23344936966896057
1774158166076427800,6.336427734375,2.6928319931030273,2.0067505836486816,-0.37967705726623535
1774158166096419800,6.356419921875,3.7129454612731934,3.205097198486328,-0.6146833896636963
1774158166116413000,6.376412841796875,3.894882917404175,2.373657703399658,0.10408618301153183
1774158166136404700,6.39640478515625,3.338822603225708,3.3779690265655518,-0.06791277974843979
1774158166156397800,6.416397705078125,1.926445722579956,2.364511251449585,-0.5321731567382812
1774158166176391000,6.436390869140625,-0.008326677605509758,-0.4565400183200836,-2.046567678451538
1774158166196382700,6.4563828125,-0.13212308287620544,-1.7514094114303589,-2.139800786972046
1774158166216375800,6.476375732421875,0.06611381471157074,-1.2360891103744507,-1.5621811151504517
1774158166236367600,6.49636767578125,0.3055223226547241,-0.3483014404773712,-0.8980356454849243
1774158166256360700,6.516360595703125,0.4447295367717743,0.14744974672794342,0.09400692582130432
1774158166276353800,6.536353759765625,0.6286147236824036,0.05964132398366928,0.6244340538978577
1774158166296345600,6.556345703125,0.937069833278656,0.4033316373825073,1.02031672000885
1774158166316338700,6.576338623046875,1.7620744705200195,1.9918382167816162,1.3675707578659058
1774158166336331000,6.5963310546875,1.1720848083496094,1.4029511213302612,0.5242531299591064
1774158166356323800,6.61632373046875,0.44995859265327454,0.47905081510543823,0.24264487624168396
1774158166376316000,6.63631591796875,0.012941306456923485,-0.1020793542265892,-0.017872106283903122
1774158166396308700,6.656308837890625,-0.30130377411842346,0.26485177874565125,0.18215499818325043
1774158166416301800,6.6763017578125,-0.638853907585144,0.4754329323768616,0.35650697350502014
1774158166436294000,6.6962939453125,-0.09997735917568207,-0.2521359622478485,0.001237683929502964
1774158166456286700,6.71628662109375,0.6640805006027222,-1.2834744453430176,-0.20819632709026337
1774158166476278800,6.73627880859375,0.8230416178703308,-1.7109336853027344,-0.3081575632095337
1774158166496272000,6.75627197265625,0.586281418800354,-0.8286994695663452,-0.4827585220336914
1774158166516264700,6.7762646484375,0.5823978781700134,0.12181448936462402,-0.8414905071258545
1774158166536256800,6.7962568359375,0.2248193323612213,0.8955154418945312,-1.3129510879516602
1774158166556249900,6.816249755859375,-0.37957581877708435,0.7836501002311707,-0.9043793082237244
1774158166576241700,6.83624169921875,-0.7386613488197327,0.9783338904380798,-0.07380887866020203
1774158166596234800,6.85623486328125,-0.4940316081047058,0.849794864654541,0.10971609503030777
1774158166616226600,6.8762265625,-0.18064579367637634,0.8387193083763123,-0.4936387538909912
1774158166636219600,6.8962197265625,-0.12458469718694687,0.4546229839324951,-1.4159480333328247
1774158166656212700,6.916212646484375,0.0013934248127043247,-0.049303002655506134,-2.177656888961792
1774158166676204800,6.936204833984375,-0.08648092299699783,-0.8246229290962219,-2.3656296730041504
1774158166696197600,6.95619775390625,-0.38803955912590027,-1.3256756067276,-1.5577527284622192
1774158166716190000,6.97618994140625,-0.8222055435180664,-0.901194155216217,-0.20687074959278107
1774158166736182800,6.996182861328125,0.012015290558338165,-0.20323766767978668,1.7997609376907349
1774158166756174800,7.0161748046875,0.24167025089263916,1.6944336891174316,2.329949140548706
1774158166776168000,7.03616796875,-0.31388524174690247,2.918822765350342,1.525064468383789
1774158166796160800,7.056160888671875,0.07622066885232925,0.44321000576019287,0.21451550722122192
1774158166816152800,7.07615283203125,0.3694572448730469,-1.3852311372756958,-0.18093493580818176
1774158166836146000,7.09614599609375,0.4024658799171448,-1.7039545774459839,-0.09365352988243103
1774158166856137200,7.11613720703125,0.19397994875907898,-1.585160732269287,-0.1362936645746231
1774158166876130300,7.13613037109375,-0.10630528628826141,-1.2463992834091187,-0.20475512742996216
1774158166896123400,7.156123291015625,-0.21001701056957245,-1.1958873271942139,0.2507587671279907
1774158166916115200,7.176115234375,-0.2306586652994156,-1.1509395837783813,0.8653147220611572
1774158166936108300,7.1961083984375,-0.2363494485616684,-1.3638592958450317,1.3976953029632568
1774158166956100400,7.216100341796875,-0.29755279421806335,-2.1020021438598633,1.3303176164627075
1774158166976093200,7.23609326171875,-0.2640659213066101,-1.4088510274887085,1.3976002931594849
1774158166996085500,7.25608544921875,-0.23745863139629364,-0.8216364979743958,1.2300256490707397
1774158167016078300,7.276078369140625,-0.2046465277671814,-2.447674036026001,-0.09105055034160614
1774158167036070400,7.2960703125,-0.2220611870288849,-0.8786516189575195,-0.5682121515274048
1774158167056063500,7.3160634765625,-0.06706727296113968,0.46604394912719727,-0.08336666226387024
1774158167076056300,7.336056396484375,0.04868898540735245,-0.15892881155014038,-0.18983478844165802
1774158167096048400,7.35604833984375,-0.1557113379240036,-0.649997353553772,-0.03884938359260559
1774158167116041500,7.37604150390625,-0.22240927815437317,-0.40886545181274414,0.16296175122261047
1774158167136033300,7.396033203125,-0.07439225912094116,-0.780816912651062,0.258703351020813
1774158167156026400,7.4160263671875,0.08814946562051773,-0.712841272354126,-0.03884058818221092
1774158167176019500,7.43601953125,0.5138909220695496,-0.27342453598976135,-0.08711517602205276
1774158167196011300,7.45601123046875,0.6450439691543579,-0.09540683031082153,0.07269003987312317
1774158167216004400,7.47600439453125,0.7914646863937378,-0.05961798503994942,0.2832602262496948
1774158167235996200,7.49599609375,0.4619697630405426,0.1947440207004547,0.327552855014801
1774158167255989200,7.5159892578125,0.09181477129459381,0.15310178697109222,0.35702577233314514
1774158167275981300,7.535981201171875,0.002464866265654564,-0.0302203968167305,0.4389441907405853
1774158167295974100,7.55597412109375,0.08314695209264755,0.35036686062812805,0.5314961075782776
1774158167315967200,7.57596728515625,0.025184400379657745,0.5196341872215271,0.5644329190254211
1774158167335959600,7.59595947265625,0.07384751737117767,0.1561281532049179,0.7979921102523804
1774158167355952400,7.615952392578125,0.19666343927383423,-0.19093097746372223,0.8812822699546814
1774158167375944400,7.6359443359375,0.6197617650032043,-0.3022998571395874,0.9516875147819519
1774158167395937300,7.655937255859375,0.6270644664764404,0.0115393390879035,0.9078444242477417
1774158167415929300,7.675929443359375,0.19593071937561035,-0.18496552109718323,0.9961786270141602
1774158167435922400,7.69592236328125,0.024581022560596466,-0.9562369585037231,1.0058270692825317
1774158167455914200,7.715914306640625,-0.11679302155971527,-1.3495426177978516,0.9954506158828735
1774158167475907300,7.7359072265625,-0.5021221041679382,-0.8142534494400024,0.6019983887672424
1774158167495900400,7.755900390625,-0.7348058819770813,-0.3569764196872711,0.3053644597530365
1774158167515892200,7.775892333984375,-0.9115779995918274,0.02962348982691765,-0.5755003094673157
1774158167535885300,7.79588525390625,-0.5440124273300171,0.9272211790084839,-1.4353734254837036
1774158167555877000,7.815877197265625,-0.3410717248916626,1.3029431104660034,-1.41477632522583
1774158167575870200,7.8358701171875,-0.374920129776001,0.22379295527935028,0.5785687565803528
1774158167595862300,7.8558623046875,-0.6844332814216614,-0.15535886585712433,1.0310733318328857
1774158167615855000,7.875855224609375,-0.6116976737976074,-0.6445224285125732,0.7074700593948364
1774158167635848200,7.89584814453125,0.2724969983100891,-0.6787669658660889,0.08783198148012161
1774158167655840500,7.915840576171875,0.481061190366745,0.6295186281204224,-0.5164974331855774
1774158167675833300,7.935833251953125,0.6839123368263245,0.5960360169410706,-0.9616197347640991
1774158167695825400,7.955825439453125,1.3298934698104858,-0.07311567664146423,-1.1204745769500732
1774158167715818500,7.975818603515625,0.8021263480186462,-0.6680525541305542,-1.3346651792526245
1774158167735810300,7.995810302734375,0.37305817008018494,-0.09172558784484863,-0.511777400970459
1774158167755803400,8.015803466796875,0.5710899233818054,0.061471980065107346,0.3707413077354431
1774158167775795200,8.035795166015625,0.38286080956459045,-0.5506876111030579,0.45772695541381836
1774158167795788300,8.055788330078125,0.23513805866241455,-0.3914552927017212,0.12668299674987793
1774158167815781400,8.075781494140625,0.10278424620628357,0.4062439799308777,0.2136802077293396
1774158167835773200,8.095773193359374,-0.21263359487056732,0.22863031923770905,1.3537348508834839
1774158167855767600,8.115767578125,-0.8081741333007812,0.5284873843193054,1.5667643547058105
1774158167875759400,8.13575927734375,-0.4115046262741089,-0.6046146750450134,1.0244368314743042
1774158167895752400,8.15575244140625,-0.5516769886016846,0.036174844950437546,1.2854607105255127
1774158167915744500,8.17574462890625,-0.7402814626693726,0.7577205300331116,1.0956649780273438
1774158167935737300,8.1957373046875,-0.594603419303894,1.4080333709716797,1.1331605911254883
1774158167955730400,8.21573046875,-0.7597982287406921,1.3981763124465942,1.3844804763793945
1774158167975722500,8.235722412109375,-0.7291550040245056,0.5162027478218079,0.4732927680015564
1774158167995715300,8.25571533203125,-0.12779654562473297,0.3621923625469208,-0.010124240070581436
1774158168015707400,8.275707275390625,-0.05946284532546997,-0.03779284656047821,-0.23527999222278595
1774158168035700500,8.295700439453125,-0.12298183888196945,0.6200013160705566,-0.08219975978136063
1774158168055692500,8.315692626953124,-0.1426616609096527,0.3530675768852234,0.43114691972732544
1774158168075685400,8.335685302734374,-0.0996658131480217,-0.09931423515081406,0.9947170615196228
1774158168095677400,8.355677490234376,0.1334851235151291,-0.10788964480161667,0.6644747257232666
1774158168115670500,8.37567041015625,0.15809078514575958,-0.23617863655090332,0.30177199840545654
1774158168135663600,8.39566357421875,0.10544418543577194,-0.11543755978345871,0.37268131971359253
1774158168155655400,8.415655517578125,-0.17970505356788635,-0.21847018599510193,0.806423008441925
1774158168175648500,8.4356484375,-0.0804821252822876,0.01386263594031334,0.8913168907165527
1774158168195640600,8.455640625,-0.024615498259663582,-0.16383546590805054,0.6696953177452087
1774158168215633400,8.47563330078125,0.19150051474571228,-0.5424728393554688,0.233086958527565
1774158168235625500,8.49562548828125,0.2091972380876541,-0.8073074221611023,-0.07163657993078232
1774158168255618300,8.515618408203125,0.17980735003948212,-0.7943984866142273,-0.49840229749679565
1774158168275610400,8.5356103515625,0.07103168964385986,0.456460565328598,-0.7551239728927612
1774158168295603500,8.555603515625,-0.07588227093219757,-0.05335317552089691,-1.4056898355484009
1774158168315596300,8.57559619140625,-0.06171801686286926,-0.24257822334766388,-0.7220407128334045
1774158168335588400,8.59558837890625,-0.045386724174022675,-0.6649946570396423,-0.25496676564216614
1774158168355581400,8.61558154296875,0.046766020357608795,-0.768254816532135,-0.15411415696144104
1774158168375573500,8.635573486328125,-0.012428605929017067,-0.43628990650177,-0.2282179743051529
1774158168395566300,8.65556640625,-0.00323976157233119,-0.30242717266082764,-0.2899566888809204
1774158168415558400,8.675558349609375,0.12804347276687622,0.0049498300068080425,-0.5188521146774292
1774158168435551500,8.695551513671875,0.15135647356510162,0.6452416777610779,-0.9187207818031311
1774158168455543600,8.71554345703125,-0.12691661715507507,-0.14338241517543793,-0.6032077670097351
1774158168475536400,8.735536376953124,-0.3002352714538574,-1.3408334255218506,0.18789906799793243
1774158168495529500,8.755529541015624,-0.2816521227359772,-1.1455274820327759,-0.04281120374798775
1774158168515521500,8.775521484375,0.026681864634156227,0.9690260887145996,-1.6950770616531372
1774158168535514400,8.795514404296876,-0.3330754339694977,1.7794978618621826,-2.0903213024139404
1774158168555506400,8.81550634765625,-0.13857179880142212,0.9687230587005615,-1.5161736011505127
1774158168575499500,8.83549951171875,-0.3871000111103058,0.27065685391426086,-1.0802139043807983
1774158168595491300,8.8554912109375,-0.549178421497345,0.5717748999595642,-1.200864553451538
1774158168615484400,8.875484375,0.5778724551200867,0.4041147828102112,-1.123258113861084
1774158168635476200,8.895476318359375,1.3969860076904297,-0.39646899700164795,-0.632256269454956
1774158168655469300,8.91546923828125,1.3147828578948975,-0.6869516968727112,0.1017056331038475
1774158168675462400,8.93546240234375,0.8657435774803162,-0.7606772780418396,0.37547391653060913
1774158168695454500,8.955454345703124,0.5029396414756775,-0.38749414682388306,-0.04787186160683632
1774158168715447600,8.975447509765624,0.45123526453971863,-0.09274715930223465,-0.2723793089389801
1774158168735439600,8.995439697265626,0.32886290550231934,0.04300294816493988,-0.3401925563812256
1774158168755432400,9.015432373046876,0.2799091637134552,0.18978622555732727,-0.5392463803291321
1774158168775424500,9.035424560546875,0.22920942306518555,-0.022986214607954025,-0.35849496722221375
1774158168795417600,9.05541748046875,0.26730409264564514,0.07061538845300674,-0.046989187598228455
1774158168815409400,9.075409423828125,0.2514345645904541,0.08523399382829666,-0.07894324511289597
1774158168835402500,9.095402587890625,0.0810798853635788,-0.08382773399353027,-0.13353298604488373
1774158168855394000,9.11539404296875,-0.00615592859685421,-0.06742879003286362,-0.13112029433250427
1774158168875387000,9.135386962890625,0.13580358028411865,0.09722886979579926,-0.2024795562028885
1774158168895380000,9.1553798828125,0.24838052690029144,0.019278155639767647,-0.41305890679359436
1774158168915372000,9.1753720703125,0.3849143087863922,-0.8424373865127563,-1.1393455266952515
1774158168935364900,9.19536474609375,0.39198392629623413,-1.1478351354599,-0.5136175751686096
1774158168955357200,9.215357177734376,0.4321896731853485,-0.6251829266548157,0.5026053190231323
1774158168975350000,9.23535009765625,-0.0800706222653389,-0.48397645354270935,0.718029260635376
1774158168995342000,9.255342041015625,-0.7204031944274902,-0.7513136267662048,0.3239743709564209
1774158169015335200,9.275335205078125,-0.4808325171470642,0.6219890713691711,0.23044921457767487
1774158169035327000,9.295326904296875,-0.3664793074131012,0.8906716704368591,-0.17523914575576782
1774158169055320000,9.315320068359375,-0.3941936790943146,0.9142875075340271,-0.48507678508758545
1774158169075313200,9.335313232421875,-0.5605040192604065,0.43049073219299316,-0.6537836194038391
1774158169095305000,9.355304931640624,-0.5956615805625916,-0.37505772709846497,-0.5156000256538391
1774158169115298000,9.375298095703124,-0.4120061993598938,-0.7032291889190674,-0.035442642867565155
1774158169135290000,9.3952900390625,-0.2612418234348297,-0.6875224113464355,0.6003860831260681
1774158169155283000,9.415282958984376,-0.09883230924606323,-1.598135232925415,0.5243595838546753
1774158169175275000,9.43527490234375,-0.06369851529598236,-0.9623382091522217,-0.23988127708435059
1774158169195268000,9.45526806640625,0.01753268390893936,-0.5261457562446594,-0.2605898678302765
1774158169215260000,9.475260009765625,-0.023806914687156677,-0.44408658146858215,-0.1711146980524063
1774158169235253000,9.4952529296875,-0.05108774080872536,-0.706548273563385,-0.08715377002954483
1774158169255245000,9.5152451171875,-0.0747702568769455,-0.8501283526420593,-0.13166171312332153
1774158169275238100,9.535238037109375,-0.29148876667022705,-1.0403363704681396,-0.17146585881710052
1774158169295231000,9.55523095703125,-0.28504952788352966,-0.5003810524940491,0.030383653938770294
1774158169315223000,9.57522314453125,-0.12026987224817276,-0.07606382668018341,-0.1851692646741867
1774158169335216000,9.595216064453124,0.010153690353035927,-0.22567647695541382,-0.33925992250442505
1774158169355208200,9.615208251953124,-0.03619808703660965,-0.49945661425590515,0.05200223624706268
1774158169375201000,9.635200927734376,-0.3710799813270569,-1.0060462951660156,0.10187952220439911
1774158169395193000,9.655193115234376,0.028113359585404396,-0.6004551649093628,0.2125055193901062
1774158169415186200,9.675186279296875,0.29618993401527405,-0.7229887843132019,-0.05149589106440544
1774158169435178000,9.695177978515625,0.39754047989845276,-0.38910427689552307,-0.13245612382888794
1774158169455171000,9.715171142578125,0.11181482672691345,0.595847487449646,-0.23847976326942444
1774158169475163000,9.735162841796875,0.10832997411489487,0.5858758091926575,-0.2217632532119751
1774158169495156000,9.755156005859375,0.14045558869838715,-0.1367141157388687,-0.01566425710916519
1774158169515148300,9.775148193359374,0.17081201076507568,-0.37485530972480774,0.26152846217155457
1774158169535140900,9.795140869140624,0.19533278048038483,0.04761046543717384,0.24475198984146118
1774158169555134000,9.815134033203124,0.15654516220092773,-0.1725805103778839,0.12419908493757248
1774158169575126300,9.835126220703126,0.09081926196813583,-0.022459181025624275,0.13698320090770721
1774158169595119000,9.855119140625,0.026364490389823914,0.30240997672080994,0.07639124244451523
1774158169615111200,9.875111083984375,-0.029726706445217133,0.5987918376922607,-0.02746100351214409
1774158169635104300,9.895104248046875,0.020905453711748123,0.8288630843162537,-0.23194648325443268
1774158169655096000,9.915095947265625,0.06666743755340576,0.6352806091308594,-0.19167444109916687
1774158169675089200,9.935089111328125,0.12378455698490143,0.498764306306839,-0.027983399108052254
1774158169695081000,9.9550810546875,0.10295174270868301,0.43692174553871155,-0.0846976637840271
1774158169715074000,9.975073974609375,0.06771343946456909,0.40276452898979187,-0.05931944400072098
1774158169735066000,9.995066162109374,0.013236762955784798,0.21231390535831451,-0.028937436640262604
1774158169755059000,10.015058837890624,-0.06692491471767426,0.5367615222930908,-0.0515986867249012
1774158169775052000,10.035052001953124,-0.03902584686875343,1.1755754947662354,-0.08918309211730957
1774158169795044000,10.055044189453126,-0.045504312962293625,1.4391006231307983,0.18226946890354156
1774158169815037000,10.075036865234376,0.04868767410516739,1.3952597379684448,0.18884414434432983
1774158169835029200,10.095029296875,0.11735425889492035,0.6642547249794006,-0.02095862105488777
1774158169855022000,10.11502197265625,0.022219935432076454,-0.13407865166664124,-0.2102631777524948
1774158169875014100,10.13501416015625,0.004724595695734024,-0.4918341338634491,0.05477381870150566
1774158169895007200,10.15500732421875,0.2637344300746918,-0.6129485964775085,-0.40773680806159973
1774158169914999000,10.1749990234375,0.23532530665397644,-0.3082680404186249,-0.277143269777298
1774158169934992100,10.1949921875,0.13802304863929749,-0.23304355144500732,-0.24951395392417908
1774158169954984200,10.214984130859374,0.12425091117620468,-0.3008817434310913,-0.2915700078010559
1774158169974977000,10.23497705078125,0.1081930547952652,-0.22122633457183838,-0.3615696132183075
1774158169994969000,10.254968994140626,0.026314305141568184,0.13674405217170715,-0.24076874554157257
1774158170014962000,10.2749619140625,0.007792792282998562,0.09938549250364304,0.029962480068206787
1774158170034955000,10.294955078125,-0.07547860592603683,0.10276157408952713,0.1265697330236435
1774158170054947000,10.314947021484375,-0.19400981068611145,0.3215509355068207,0.020802533254027367
1774158170074940000,10.33493994140625,-0.2608242928981781,0.0788370668888092,-0.12269548326730728
1774158170094932000,10.354931884765625,-0.1999991089105606,-0.6322746276855469,0.28629016876220703
1774158170114925000,10.374925048828125,0.11472797393798828,-1.0317245721817017,-0.12309005856513977
1774158170134917000,10.394917236328125,-0.014873701147735119,-1.2685751914978027,0.03950553387403488
1774158170154910200,10.41491015625,-0.12504684925079346,-0.9999039769172668,0.2579726278781891
1774158170174902000,10.434902099609374,-0.18767955899238586,-0.20709480345249176,0.28958752751350403
1774158170194895000,10.45489501953125,-0.19513362646102905,0.2965545058250427,0.28642383217811584
1774158170214887200,10.47488720703125,-0.0576617531478405,0.8462293744087219,-0.14632867276668549
1774158170234880000,10.4948798828125,-0.13713017106056213,0.613935112953186,-0.37837493419647217
1774158170254872000,10.5148720703125,-0.18779388070106506,0.4662090241909027,-0.09190095216035843
1774158170274865200,10.534865234375,-0.10155552625656128,0.8945257663726807,-0.13553474843502045
1774158170294857000,10.55485693359375,-0.05193564295768738,1.3311374187469482,-0.36175933480262756
1774158170314850000,10.57485009765625,-0.06888579577207565,1.3977068662643433,-0.24104344844818115
1774158170334843100,10.594843017578125,-0.14424343407154083,1.2554059028625488,-0.06291857361793518
1774158170354835000,10.6148349609375,-0.0700218603014946,0.8562652468681335,0.1189969852566719
1774158170374828000,10.634828125,-0.12449082732200623,0.25363287329673767,-0.0873059555888176
1774158170394820000,10.654820068359374,-0.03488617017865181,-0.31091946363449097,0.14899607002735138
1774158170414813000,10.67481298828125,0.023440545424818993,-0.18260546028614044,-0.05372227728366852
1774158170434805200,10.69480517578125,-0.03245926648378372,-0.04104086756706238,-0.017642688006162643
1774158170454798000,10.714798095703125,-0.0576382651925087,0.18269795179367065,0.015219764783978462
1774158170474790100,10.7347900390625,-0.046219490468502045,0.39883744716644287,-0.07125720381736755
1774158170494783200,10.754783203125,-0.026110880076885223,0.5684294104576111,-0.07720030844211578
1774158170514775000,10.774775146484375,-0.03814368695020676,0.8041130304336548,-0.13112801313400269
1774158170534768000,10.79476806640625,-0.0969342440366745,0.9966369271278381,-0.1377285122871399
1774158170554760000,10.814760009765624,-0.11747337132692337,1.0775749683380127,-0.10788793116807938
1774158170574753000,10.8347529296875,-0.20707643032073975,0.9053131341934204,-0.040264952927827835
1774158170594745000,10.8547451171875,-0.22961796820163727,0.7168862819671631,-0.008457607589662075
1774158170614738000,10.874738037109376,-0.19080771505832672,0.4322715699672699,-0.04170637205243111
1774158170634731000,10.89473095703125,-0.1250608116388321,0.3357125222682953,-0.20424014329910278
1774158170654723000,10.91472314453125,-0.14438565075397491,0.1602507084608078,-0.277632474899292
1774158170674716000,10.9347158203125,-0.1775369942188263,-0.08671540766954422,-0.191148579120636
1774158170694708200,10.954708251953125,-0.06745151430368423,-0.06687086075544357,-0.053117357194423676
1774158170714701000,10.974701171875,-0.07927079498767853,-0.06741813570261002,-0.2144797444343567
1774158170734693000,10.994693115234375,-0.09982253611087799,-0.16184265911579132,-0.2545424699783325
1774158170754686200,11.014686279296875,-0.10981373488903046,-0.17229236662387848,-0.22804439067840576
1774158170774678000,11.034677978515624,-0.09506884962320328,-0.26783487200737,-0.25081339478492737
1774158170794671000,11.054671142578124,-0.14797069132328033,-0.23739705979824066,-0.2272699773311615
1774158170814663200,11.0746630859375,-0.2067653387784958,-0.03689219430088997,-0.19426913559436798
1774158170834656000,11.094656005859376,-0.17948803305625916,0.04343460500240326,-0.2088940292596817
1774158170854647800,11.114647705078125,-0.1608661413192749,-0.04282678663730621,-0.22901497781276703
1774158170874641000,11.134640869140625,-0.14445817470550537,-0.08872902393341064,-0.14607125520706177
1774158170894632700,11.1546328125,-0.27109524607658386,-0.232626274228096,-0.22058890759944916
1774158170914625800,11.174625732421875,-0.28130680322647095,-0.41312918066978455,-0.316521555185318
1774158170934619000,11.194618896484375,-0.32041871547698975,-0.29594558477401733,-0.10883469134569168
1774158170954611000,11.21461083984375,-0.27885305881500244,-0.06854040175676346,0.07856465876102448
1774158170974603800,11.234603759765625,-0.20460791885852814,-0.022297797724604607,0.04599417746067047
1774158170994596000,11.25459619140625,-0.2507684826850891,0.059525154531002045,-0.008962519466876984
1774158171014589000,11.2745888671875,-0.27254003286361694,0.009793817065656185,-0.04185762256383896
1774158171034581000,11.2945810546875,-0.15935133397579193,0.702466607093811,0.39815226197242737
1774158171054574000,11.314573974609376,-0.011420262977480888,0.4893316328525543,0.4592211842536926
1774158171074566000,11.33456591796875,-0.05715373903512955,-1.1716443300247192,-0.24948342144489288
1774158171094559000,11.35455908203125,-0.1050477996468544,-0.8087194561958313,-0.16942675411701202
1774158171114550800,11.37455078125,-0.09119430184364319,-0.6740611791610718,0.16684603691101074
1774158171134544000,11.3945439453125,-0.24828186631202698,-0.5327882170677185,0.06482342630624771
1774158171154536000,11.414535888671875,-0.24678224325180054,-0.33552974462509155,0.04485194757580757
1774158171174528800,11.43452880859375,-0.18766117095947266,-0.19166579842567444,0.050123438239097595
1774158171194520800,11.454520751953124,-0.17717650532722473,-0.17459705471992493,0.07622214406728745
1774158171214514000,11.474513916015624,-0.15347303450107574,-0.0012005120515823364,0.19853940606117249
1774158171234506000,11.494506103515626,-0.17425063252449036,0.08098836988210678,0.26018452644348145
1774158171254499000,11.5144990234375,-0.1925908625125885,0.20090092718601227,0.27761343121528625
1774158171274492000,11.534491943359376,-0.17832006514072418,0.1750219315290451,0.2896820604801178
1774158171294484000,11.55448388671875,-0.24289195239543915,-0.10411730408668518,0.1351015567779541
1774158171314477000,11.57447705078125,-0.27370500564575195,0.010136565193533897,0.29242342710494995
1774158171334468900,11.59446875,-0.2416456639766693,0.10244359821081161,0.41428354382514954
1774158171354462000,11.6144619140625,-0.25126996636390686,0.11340703070163727,0.37288498878479004
1774158171374454000,11.6344541015625,-0.28163009881973267,0.11774452030658722,0.2771119773387909
1774158171394446800,11.65444677734375,-0.31873971223831177,0.15674811601638794,0.24038855731487274
1774158171414439000,11.67443896484375,-0.3273336589336395,0.13831637799739838,0.16475066542625427
1774158171434431700,11.694431640625,-0.28447097539901733,0.04258745163679123,0.07712696492671967
1774158171454423800,11.714423828125,-0.21830473840236664,-0.02551915869116783,0.046412430703639984
1774158171474417000,11.7344169921875,-0.16640213131904602,0.024568766355514526,-0.001356661319732666
1774158171494409000,11.754408935546875,-0.1992759108543396,0.1619711071252823,0.025835132226347923
1774158171514401800,11.77440185546875,-0.1900762915611267,0.24161213636398315,0.03904775530099869
1774158171534393900,11.794393798828125,-0.11374390870332718,0.25446268916130066,0.021695775911211967
1774158171554387000,11.814386962890625,-0.0961625799536705,0.2749040424823761,-0.010057887062430382
1774158171574379000,11.83437890625,-0.08755861967802048,0.22891178727149963,-0.031391266733407974
1774158171594371800,11.854371826171874,0.004583323840051889,0.17363202571868896,0.06048499792814255
1774158171614364000,11.874364013671874,0.10898766666650772,0.10532326996326447,0.04689034819602966
1774158171634357000,11.89435693359375,0.10957936942577362,0.11441078037023544,0.021950237452983856
1774158171654348800,11.914348876953126,0.08978095650672913,0.2296404242515564,0.04699302837252617
1774158171674342000,11.934341796875,0.12855495512485504,0.33213457465171814,0.035702675580978394
1774158171694335000,11.9543349609375,0.19312509894371033,0.1124456375837326,-0.0553998239338398
1774158171714326800,11.974326904296875,0.16007450222969055,-0.0423029400408268,-0.09244649857282639
1774158171734319900,11.99431982421875,0.23267242312431335,0.08506326377391815,-0.136045902967453
1774158171754311700,12.014311767578125,0.3013836741447449,0.20317313075065613,-0.1113462746143341
1774158171774304800,12.0343046875,0.29662811756134033,0.30223551392555237,-0.1539684534072876
1774158171794297000,12.054297119140625,0.3752140998840332,0.681863009929657,-0.0950448140501976
1774158171814290000,12.0742900390625,0.28358229994773865,0.303114116191864,-0.31685686111450195
1774158171834282000,12.094281982421874,0.2968241274356842,0.3379557132720947,-0.23581136763095856
1774158171854275000,12.114275146484376,0.31784361600875854,0.22775863111019135,-0.24945887923240662
1774158171874266600,12.1342666015625,0.3963466286659241,-0.012689922004938126,-0.25556936860084534
1774158171894259500,12.154259521484375,0.4618360996246338,-0.1811409741640091,-0.19218562543392181
1774158171914251500,12.17425146484375,0.4678800106048584,-0.22026680409908295,-0.13469184935092926
1774158171934244600,12.19424462890625,0.42956435680389404,-0.042043812572956085,-0.17155475914478302
1774158171954236400,12.214236328125,0.3943287432193756,-0.17596806585788727,-0.05141890048980713
1774158171974229500,12.2342294921875,0.19675104320049286,-0.45008137822151184,0.04423132911324501
1774158171994221600,12.2542216796875,0.20984359085559845,-0.7641162872314453,0.13409051299095154
1774158172014214400,12.27421435546875,0.3462930917739868,-0.6878944635391235,0.20716607570648193
1774158172034206700,12.294206787109376,0.34829598665237427,-0.4415012001991272,0.07960087805986404
1774158172054199600,12.314199462890626,0.22247272729873657,-0.6178802251815796,0.014046112075448036
1774158172074191600,12.334191650390625,0.1879878044128418,-1.1603929996490479,0.13125544786453247
1774158172094184700,12.354184814453125,0.1197194755077362,-1.611085057258606,0.21259532868862152
1774158172114177500,12.374177490234375,0.10465133190155029,-1.2266969680786133,0.21086998283863068
1774158172134169600,12.394169677734375,0.15728256106376648,-0.8592832684516907,0.35549625754356384
1774158172154162700,12.41416259765625,0.14242134988307953,-0.8379843235015869,0.3798823058605194
1774158172174154500,12.434154541015625,0.04011749476194382,-0.5246890187263489,0.2818810045719147
1774158172194147600,12.454147705078125,-0.1310814917087555,-0.21430373191833496,0.14167851209640503
1774158172214139400,12.474139404296874,-0.11812513321638107,-0.16675032675266266,0.115908183157444
1774158172234132500,12.494132568359374,-0.054841239005327225,-0.3319864273071289,0.08943088352680206
1774158172254124500,12.51412451171875,-0.024188190698623657,-0.4482001066207886,0.08900520950555801
1774158172274117400,12.534117431640626,-0.0026987059973180294,-0.42928048968315125,0.02522660419344902
1774158172294109700,12.554109619140625,0.02591385319828987,-0.534483015537262,-0.09238389879465103
1774158172314102500,12.5741025390625,0.12006521224975586,-1.0540846586227417,-0.05971277877688408
1774158172334094600,12.594094482421875,0.2115030437707901,-1.823799967765808,0.03769686073064804
1774158172354087700,12.614087646484375,0.23490986227989197,-2.1750552654266357,0.24594886600971222
1774158172374079500,12.63407958984375,0.2531754970550537,-1.8876872062683105,0.35714516043663025
1774158172394072600,12.654072509765625,0.32579365372657776,-1.5373107194900513,0.3340785503387451
1774158172414064600,12.674064697265624,0.48804259300231934,-1.3301717042922974,0.2826297879219055
1774158172434057500,12.694057373046874,0.43741124868392944,-1.2573038339614868,0.46097102761268616
1774158172454049500,12.714049560546876,0.24226225912570953,-1.1095274686813354,0.5086578130722046
1774158172474042400,12.73404248046875,-0.20083703100681305,-1.204085111618042,0.4294065833091736
1774158172494034400,12.754034423828125,-0.8129494190216064,-1.5337482690811157,0.6240710020065308
1774158172514027500,12.774027587890625,-1.1413215398788452,-1.2405451536178589,0.5719244480133057
1774158172534019600,12.79401953125,-0.6728330254554749,-0.0911751389503479,0.2067648470401764
1774158172554012400,12.814012451171875,-0.2239643931388855,-0.07897200435400009,0.2110137939453125
1774158172574004500,12.83400439453125,0.003962425515055656,-0.281878262758255,0.2925797700881958
1774158172593997600,12.85399755859375,0.11911118030548096,-0.47418326139450073,0.445777028799057
1774158172613989600,12.87398974609375,0.16559597849845886,-0.2033541351556778,0.4218907654285431
1774158172633982500,12.893982421875,0.2508237957954407,-0.10738100111484528,0.5598223209381104
1774158172653975600,12.9139755859375,-0.490763783454895,0.43872547149658203,0.2859242558479309
1774158172673967600,12.933967529296876,-0.8494802713394165,1.6625005006790161,0.27210962772369385
1774158172693960400,12.95396044921875,-0.4508267641067505,0.33780577778816223,0.06374216824769974
1774158172713952500,12.973952392578125,0.1503947377204895,0.4833262264728546,-0.10807443410158157
1774158172733945600,12.993945556640625,0.3472263216972351,-0.9850468039512634,-0.6036527752876282
1774158172753937400,13.0139375,0.2645531892776489,-1.866040587425232,-0.36285120248794556
1774158172773930500,13.033930419921875,0.17142246663570404,-1.9355757236480713,-0.21377091109752655
1774158172793922300,13.05392236328125,0.2216627597808838,-0.8237180709838867,-0.39445218443870544
1774158172813915400,13.073915283203124,-0.06811022758483887,-0.2301892191171646,-0.36368289589881897
1774158172833907700,13.09390771484375,-0.017904110252857208,-0.07662629336118698,-0.2457118034362793
1774158172853900500,13.113900634765624,0.06101926043629646,0.06020106375217438,-0.20693910121917725
1774158172873892600,13.133892578125,0.031016234308481216,-0.0511571504175663,-0.17967793345451355
1774158172893885700,13.1538857421875,-0.19197052717208862,-0.1400446742773056,-0.5218263864517212
1774158172913877500,13.17387744140625,-0.3944200575351715,-0.20105211436748505,-0.2846313714981079
1774158172933870600,13.19387060546875,-0.32648512721061707,-0.501144289970398,0.3449951708316803
1774158172953862400,13.2138623046875,-0.1307743787765503,-0.3760817348957062,0.5750633478164673
1774158172973855500,13.23385546875,-0.03066742792725563,-0.7450985908508301,0.24129606783390045
1774158172993847600,13.25384765625,0.0748223289847374,-0.8551700115203857,-0.015233993530273438
1774158173013840400,13.27384033203125,0.4606437385082245,-0.8291299343109131,0.2826220989227295
1774158173033832400,13.29383251953125,0.342072069644928,-0.010941822081804276,0.23936420679092407
1774158173053825500,13.313825439453124,0.2568694055080414,0.5583911538124084,0.4405694901943207
1774158173073817600,13.333817626953126,0.276932954788208,0.5519367456436157,0.4566369950771332
1774158173093810400,13.353810546875,0.3741784691810608,0.2813433110713959,0.11858916282653809
1774158173113802500,13.373802490234375,0.5400695204734802,0.23860356211662292,-0.49980628490448
1774158173133795600,13.393795654296875,0.59713214635849,0.5379396677017212,-0.4560328423976898
1774158173153787600,13.41378759765625,0.6318619847297668,0.7319347262382507,-0.4221380949020386
1774158173173780500,13.433780517578125,0.5972282290458679,0.49046963453292847,-0.3077155351638794
1774158173193772500,13.4537724609375,0.5189582109451294,0.14714501798152924,-0.24398808181285858
1774158173213765600,13.473765625,0.6969965100288391,-0.37577757239341736,-0.28404948115348816
1774158173233757400,13.49375732421875,0.8568480014801025,-1.0308128595352173,-0.4383663535118103
1774158173253750500,13.51375048828125,1.1125903129577637,-0.9960424304008484,-0.6113744378089905
1774158173273743600,13.53374365234375,1.0938832759857178,-1.0965514183044434,0.28254616260528564
1774158173293735400,13.5537353515625,0.5340420007705688,0.0963665246963501,0.5226654410362244
1774158173313728500,13.573728515625,0.2460751235485077,1.6407911777496338,0.12326368689537048
1774158173333720300,13.59372021484375,-0.14587201178073883,1.8312751054763794,-0.16237176954746246
1774158173353713400,13.61371337890625,-0.23136138916015625,1.0302093029022217,-0.145914226770401
1774158173373705700,13.633705810546875,0.20134255290031433,0.7901841402053833,0.1640714555978775
1774158173393698600,13.653698486328125,-0.10642305761575699,0.9636318683624268,0.26597797870635986
1774158173413690600,13.673690673828125,-0.259524405002594,0.903170108795166,-0.2072359323501587
1774158173433683700,13.69368359375,0.1063862070441246,1.4525320529937744,-0.30866214632987976
1774158173453675500,13.713675537109374,0.3543547987937927,1.6289334297180176,0.009277097880840302
1774158173473668600,13.733668701171876,0.2581818997859955,1.634759783744812,0.22538301348686218
1774158173493660400,13.753660400390626,-0.1863836795091629,1.7755324840545654,0.421237587928772
1774158173513653500,13.773653564453125,-0.2577550411224365,1.973416805267334,0.5673221945762634
1774158173533645600,13.7936455078125,-0.11466852575540543,1.9700261354446411,0.48122477531433105
1774158173553638400,13.813638427734375,-0.2276834100484848,1.9339910745620728,0.27591371536254883
1774158173573630500,13.83363037109375,-0.23178216814994812,2.4907608032226562,-0.11621572822332382
1774158173593623600,13.85362353515625,-0.20514126121997833,3.2229225635528564,-0.5859929323196411
1774158173613615600,13.87361572265625,-0.15145933628082275,3.0359232425689697,-0.36384817957878113
1774158173633608700,13.893608642578124,-0.2108195424079895,2.525648355484009,0.08439554274082184
1774158173653600500,13.9136005859375,-0.1567547470331192,2.1166179180145264,0.30362004041671753
1774158173673593600,13.933593505859376,-0.1290990710258484,1.7640012502670288,-0.09818611294031143
1774158173693585700,13.953585693359376,0.025818001478910446,1.3234297037124634,-0.4915279150009155
1774158173713578500,13.97357861328125,0.22280295193195343,1.0300064086914062,-0.4864393472671509
1774158173733570600,13.993570556640625,0.35676121711730957,1.1271246671676636,-0.28838348388671875
1774158173753563600,14.013563720703125,0.12379384785890579,1.1274359226226807,-0.43416815996170044
1774158173773555500,14.033555419921875,-0.04258587583899498,1.1875765323638916,-0.828050971031189
1774158173793548500,14.053548583984375,0.14098557829856873,1.5849041938781738,-1.0021772384643555
1774158173813540400,14.073540283203124,0.4771099090576172,1.8159047365188599,-0.9616512656211853
1774158173833533400,14.093533447265624,0.6268230676651001,2.409700870513916,-0.9261960387229919
1774158173853525800,14.11352587890625,0.4116065800189972,1.8830196857452393,-0.8644923567771912
1774158173873518600,14.1335185546875,0.2278243750333786,0.7870222330093384,-0.2938207685947418
1774158173893510400,14.153510498046876,0.17878080904483795,0.10289419442415237,0.02720189280807972
1774158173913503500,14.17350341796875,0.31013497710227966,0.31353268027305603,-0.003286253195255995
1774158173933495600,14.19349560546875,0.33104607462882996,0.8141041398048401,-0.014707602560520172
1774158173953488400,14.21348828125,0.17005276679992676,1.0844587087631226,0.1030762791633606
1774158173973480400,14.23348046875,-0.07301707565784454,1.0668765306472778,0.3863512873649597
1774158173993473300,14.253473388671875,-0.20156235992908478,0.9440680146217346,0.5782602429389954
1774158174013465300,14.27346533203125,-0.30781078338623047,0.9025719165802002,0.7325536012649536
1774158174033458400,14.29345849609375,-0.3912176191806793,0.3779239058494568,0.6387828588485718
1774158174053450200,14.3134501953125,-0.45464736223220825,-0.19514256715774536,0.47320759296417236
1774158174073443300,14.333443359375,-0.39021173119544983,-0.22443439066410065,0.3554950952529907
1774158174093435400,14.353435302734376,-0.36440446972846985,0.2724400758743286,0.2328830063343048
1774158174113428500,14.373428466796875,-0.40259692072868347,0.7262616157531738,0.028394052758812904
1774158174133420500,14.393420654296875,-0.24781964719295502,0.5730710029602051,0.021720444783568382
1774158174153413400,14.413413330078125,-0.3744986951351166,0.8728902339935303,0.24866437911987305
1774158174173405400,14.433405517578125,-0.39685770869255066,1.1532944440841675,0.1611025631427765
1774158174193398500,14.4533984375,-0.46526747941970825,0.9285183548927307,-0.18535564839839935
1774158174213391400,14.473391357421875,-0.5018934011459351,0.6161289811134338,-0.22841206192970276
1774158174233383400,14.493383544921874,-0.4676690399646759,0.32942667603492737,-0.037695493549108505
1774158174253376500,14.51337646484375,-0.3871650695800781,0.042801834642887115,0.06955479085445404
1774158174273368300,14.533368408203126,-0.3998112082481384,-0.2939053475856781,0.030679039657115936
1774158174293361400,14.553361328125,-0.3881416916847229,-0.4070955514907837,-0.11831923574209213
1774158174313353200,14.573353271484375,-0.39179345965385437,-0.6464996337890625,-0.2929238975048065
1774158174333346300,14.59334619140625,-0.38862189650535583,-0.8344109058380127,-0.19812069833278656
1774158174353338400,14.61333837890625,-0.2805497944355011,-0.7306081056594849,-0.03841853886842728
1774158174373331200,14.633331298828125,-0.15518279373645782,-0.3790884017944336,-0.11098980158567429
1774158174393323500,14.653323486328125,0.20311671495437622,-0.13603715598583221,-0.265724241733551
1774158174413316600,14.673316650390625,0.461331307888031,-0.1646815836429596,-0.3489348888397217
1774158174433308400,14.693308349609374,0.6764757037162781,-0.326264888048172,0.02968716248869896
1774158174453301500,14.713301513671874,0.782086193561554,-0.7090228796005249,0.23051559925079346
1774158174473293300,14.733293212890626,0.5403835773468018,0.5020647644996643,-0.000705355079844594
1774158174493286400,14.753286376953126,0.3123307526111603,1.9511274099349976,-0.25494858622550964
1774158174513278500,14.773278564453125,0.17092370986938477,1.5484592914581299,-0.15692254900932312
1774158174533271300,14.793271240234375,-0.04454415664076805,1.056658148765564,0.16348208487033844
1774158174553263400,14.813263427734375,-0.09554723650217056,0.8492916822433472,0.2114660143852234
1774158174573256400,14.83325634765625,-0.04742702469229698,1.3253288269042969,0.059053562581539154
1774158174593248300,14.853248291015625,-0.052221424877643585,1.8394688367843628,-0.0017590471543371677
1774158174613241300,14.873241455078125,-0.16154919564723969,1.70570707321167,-0.022089334204792976
1774158174633233400,14.8932333984375,-0.27581122517585754,1.0431582927703857,0.07630313187837601
1774158174653226500,14.9132265625,-0.1978476345539093,0.5671399235725403,0.08634404093027115
1774158174673218600,14.933218505859376,-0.02170260064303875,0.5501624941825867,0.06449654698371887
1774158174693211400,14.95321142578125,0.09533431380987167,0.6842731833457947,0.12885437905788422
1774158174713203500,14.973203369140625,0.14238451421260834,0.8725584149360657,0.05337647721171379
1774158174733196500,14.993196533203125,-0.03892795369029045,1.1737582683563232,-0.03877098485827446
1774158174753188400,15.013188232421875,0.2550550401210785,1.2903660535812378,0.15910157561302185
1774158174773181400,15.033181396484375,0.2921440303325653,1.0383210182189941,0.14220133423805237
1774158174793173200,15.05317333984375,0.0841251090168953,0.6261049509048462,0.036336272954940796
1774158174813166300,15.073166259765625,-0.006764226593077183,0.4789562225341797,0.08153889328241348
1774158174833158400,15.093158447265624,-0.013719780370593071,-0.2860780656337738,0.03463410958647728
1774158174853151200,15.113151123046874,0.030666470527648926,0.27215006947517395,0.019965671002864838
1774158174873145000,15.13314501953125,0.10671694576740265,0.5688408613204956,-0.05815096199512482
1774158174893138200,15.15313818359375,0.13758282363414764,0.4041382074356079,-0.02960135228931904
1774158174913130000,15.1731298828125,0.1013641431927681,0.29597046971321106,0.0370623841881752
1774158174933123000,15.193123046875,0.06030002981424332,0.39835113286972046,0.02153548039495945
1774158174953115100,15.213115234375,0.007249507587403059,0.35508331656455994,-0.10261202603578568
1774158174973108000,15.23310791015625,-0.1876356303691864,0.33971312642097473,-0.16083365678787231
1774158174993100300,15.253100341796875,-0.07118327170610428,0.14552129805088043,-0.5065944790840149
1774158175013093000,15.273093017578125,0.2847723960876465,-0.24271300435066223,-0.5052236318588257
1774158175033085200,15.293085205078125,0.6822965145111084,-0.22628182172775269,-0.4898916780948639
1774158175053078300,15.313078369140625,0.5430791974067688,0.07925251871347427,-0.411053329706192
1774158175073070000,15.333070068359374,0.2032138556241989,0.2817409038543701,-0.24938057363033295
1774158175093063200,15.353063232421874,0.08197061717510223,0.36693835258483887,-0.2772984802722931
1774158175113055200,15.37305517578125,0.1642201691865921,0.3658646047115326,-0.26164335012435913
1774158175133048000,15.393048095703126,0.26938188076019287,0.3756183981895447,-0.06468901038169861
1774158175153040100,15.4130400390625,0.30226317048072815,0.37405407428741455,0.06829993426799774
1774158175173033200,15.433033203125,0.13091109693050385,0.5907962322235107,0.0579901821911335
1774158175193025000,15.45302490234375,-0.20480087399482727,0.9139452576637268,-0.017729079350829124
1774158175213018000,15.47301806640625,-0.3312634229660034,1.0069892406463623,-0.10686735808849335
1774158175233010200,15.49301025390625,-0.22942762076854706,0.787898063659668,-0.034033361822366714
1774158175253003000,15.5130029296875,-0.14276494085788727,0.43317729234695435,0.09592955559492111
1774158175272995300,15.532995361328124,-0.10363313555717468,0.2562081217765808,0.21956345438957214
1774158175292988200,15.55298828125,-0.1661001294851303,0.14746727049350739,0.3257352113723755
1774158175312980200,15.572980224609376,-0.2562759220600128,0.12901581823825836,0.33446943759918213
1774158175332973300,15.592973388671876,-0.2995077669620514,0.231905996799469,0.29827070236206055
1774158175352965000,15.612965087890625,-0.264897882938385,0.3303193747997284,0.3923312723636627
1774158175372958200,15.632958251953125,-0.19413049519062042,0.15021832287311554,0.4273751378059387
1774158175392950000,15.652949951171875,-0.16965962946414948,0.11194602400064468,0.33921387791633606
1774158175412943000,15.672943115234375,-0.17223532497882843,0.10928952693939209,0.23455123603343964
1774158175432935200,15.69293505859375,-0.18886490166187286,-0.022240281105041504,0.22403959929943085
1774158175452928000,15.712927978515625,-0.1767718642950058,-0.25018608570098877,0.2173282951116562
1774158175472920000,15.732920166015624,-0.1868313103914261,-0.3055012822151184,0.18086709082126617
1774158175492913200,15.7529130859375,-0.13754400610923767,-0.11313475668430328,0.06455034017562866
1774158175512905200,15.7729052734375,-0.025533942505717278,-0.2576237618923187,0.010098682716488838
1774158175532898300,15.792898193359376,-0.014933235011994839,-0.5918086767196655,-0.09482014924287796
1774158175552890000,15.81289013671875,-0.024140220135450363,-0.6738550662994385,-0.3201289176940918
1774158175572883200,15.83288330078125,0.15659430623054504,-0.5138970613479614,-0.44406214356422424
1774158175592875300,15.852875244140625,0.38298261165618896,-0.38313961029052734,-0.4414744973182678
1774158175612868000,15.8728681640625,0.577244222164154,0.08581560850143433,-0.35897085070610046
1774158175632860200,15.892860107421875,0.5550875663757324,0.4765690267086029,-0.37944895029067993
1774158175652853200,15.912853271484375,0.37438565492630005,0.9761626124382019,-0.20775413513183594
1774158175672845000,15.932844970703124,0.0934806615114212,1.1525250673294067,0.076925128698349
1774158175692838100,15.952838134765624,-0.12163497507572174,0.5381183624267578,0.06120353937149048
1774158175712830000,15.972829833984376,-0.20178765058517456,-0.7160821557044983,-0.028057750314474106
1774158175732823000,15.992822998046876,-0.1911212056875229,-1.378612995147705,0.18870222568511963
1774158175752815400,16.0128154296875,-0.1191294938325882,-1.8032689094543457,0.569240152835846
1774158175772808200,16.03280810546875,-0.13697537779808044,-1.2584083080291748,0.5013123750686646
1774158175792800300,16.05280029296875,-0.13243047893047333,-0.6774117350578308,0.274637371301651
1774158175812793300,16.07279345703125,-0.08315622061491013,-0.823627233505249,0.16504326462745667
1774158175832785200,16.09278515625,0.031416166573762894,-1.0734211206436157,0.23490796983242035
1774158175852778200,16.1127783203125,0.09927823394536972,-1.1539764404296875,0.3339357376098633
1774158175872768800,16.132768798828124,0.12816683948040009,-1.0506116151809692,0.35086917877197266
1774158175892761300,16.15276123046875,0.14822852611541748,-0.9796139001846313,0.3834581673145294
1774158175912753700,16.172753662109375,0.13024958968162537,-0.7118181586265564,0.4144260585308075
1774158175932746500,16.19274658203125,0.165171816945076,-0.5123668313026428,0.4404841661453247
1774158175952738600,16.212738525390623,0.23600199818611145,-0.44939374923706055,0.45844370126724243
1774158175972731600,16.232731689453125,0.2404976785182953,-0.5030308365821838,0.4312284588813782
1774158175992723500,16.252723388671875,0.1780475527048111,-0.524377167224884,0.32499897480010986
1774158176012716500,16.272716552734376,0.12393242120742798,-0.3911599814891815,0.22326502203941345
1774158176032708600,16.29270849609375,0.16991515457630157,-0.24324239790439606,0.1474514901638031
1774158176052701400,16.312701416015624,0.2161661684513092,-0.2563108503818512,0.1532515585422516
1774158176072693500,16.332693603515626,0.25092649459838867,-0.20110802352428436,0.148319274187088
1774158176092686300,16.352686279296876,0.3499463200569153,-0.02143893390893936,0.09711681306362152
1774158176112678400,16.372678466796874,0.4077300429344177,-0.0010748079512268305,0.06690749526023865
1774158176132671500,16.39267138671875,0.3230361044406891,-0.40095004439353943,0.16974148154258728
1774158176152663600,16.41266357421875,0.20919708907604218,-0.7470821142196655,0.07330067455768585
1774158176172656600,16.43265673828125,0.22437115013599396,-0.865018904209137,-0.09519258141517639
1774158176192648400,16.4526484375,0.364080011844635,-0.4807729721069336,-0.17335078120231628
1774158176212641500,16.4726416015625,0.62992262840271,-0.4141257703304291,-0.142848402261734
1774158176232633600,16.492633544921876,0.7466216087341309,-0.2212415188550949,-0.31469884514808655
1774158176252626400,16.51262646484375,0.5154104828834534,0.32839417457580566,-0.4266868829727173
1774158176272618500,16.532618408203124,0.118787981569767,0.40063217282295227,-0.23666886985301971
1774158176292611600,16.552611572265626,-0.2040499746799469,-0.06847940385341644,-0.1542322039604187
1774158176312603400,16.572603271484375,-0.1891825795173645,-0.8732184767723083,0.1819819062948227
1774158176332596500,16.592596435546874,-0.1725824475288391,-0.8841790556907654,0.517535924911499
1774158176352588300,16.61258837890625,-0.12992440164089203,-0.19475612044334412,0.15394747257232666
1774158176372581400,16.632581298828125,-0.06334736943244934,-0.0920470580458641,-0.052795473486185074
1774158176392573700,16.65257373046875,-0.12396349012851715,-0.26669102907180786,0.04956565797328949
1774158176412566500,16.67256640625,-0.2460452914237976,-0.1391993761062622,0.061225518584251404
1774158176432558600,16.69255859375,-0.16656093299388885,0.2964567542076111,-0.10820919275283813
1774158176452551700,16.7125517578125,-0.18876568973064423,0.10814941674470901,-0.0678911954164505
1774158176472543500,16.73254345703125,-0.297253280878067,-0.4656773507595062,0.1153663918375969
1774158176492536600,16.75253662109375,-0.2519528269767761,-0.6163520812988281,0.2897014319896698
1774158176512528400,16.7725283203125,-0.39401066303253174,-0.2980037033557892,0.10291916131973267
1774158176532521500,16.792521484375,-0.3460180461406708,-0.1813068985939026,-0.0338425450026989
1774158176552513500,16.812513427734373,-0.2834630310535431,-0.42277035117149353,0.19010375440120697
1774158176572506400,16.83250634765625,-0.17860741913318634,-0.7861661314964294,0.30921974778175354
1774158176592498400,16.85249853515625,0.008016708306968212,-1.1908478736877441,0.3616352677345276
1774158176612491500,16.872491455078126,0.08572828024625778,-1.2130931615829468,0.20290207862854004
1774158176632483600,16.892483642578124,0.21461476385593414,-0.9382020831108093,0.0703713446855545
1774158176652476700,16.9124765625,0.22448767721652985,-1.3656444549560547,0.22970587015151978
1774158176672468500,16.932468505859376,1.4937212467193604,-0.8987739682197571,0.10825227946043015
1774158176692461600,16.952461669921874,0.07728826999664307,-0.41240429878234863,-0.05791687220335007
1774158176712453600,16.97245361328125,-0.16028882563114166,-0.5789772868156433,0.026921339333057404
1774158176732446500,16.992446533203125,-0.06505079567432404,-0.40333861112594604,-0.03555254638195038
1774158176752438500,17.0124384765625,-0.04292701184749603,-0.32471516728401184,-0.13799849152565002
1774158176772431600,17.032431640625,-0.025311890989542007,-0.41230735182762146,-0.15163668990135193
1774158176792423400,17.05242333984375,0.08841079473495483,-0.31161561608314514,-0.3070049583911896
1774158176812416500,17.07241650390625,0.23410415649414062,-0.09615097939968109,-0.40261325240135193
1774158176832408300,17.092408203125,0.29240649938583374,-0.10564302653074265,-0.5278500318527222
1774158176852401400,17.1124013671875,0.2587450444698334,0.09223013371229172,-0.44214797019958496
1774158176872393700,17.132393798828126,0.29858195781707764,0.3114798963069916,-0.17683885991573334
1774158176892386800,17.15238671875,0.3814599812030792,0.31425198912620544,0.03861275315284729
1774158176912379100,17.172379150390626,0.14343927800655365,0.38303717970848083,0.0688294991850853
1774158176932372000,17.1923720703125,-0.21033456921577454,0.4289953410625458,-0.011986511759459972
1774158176952364000,17.212364013671873,-0.3054986000061035,0.36501479148864746,-0.047675780951976776
1774158176972357000,17.232357177734375,-0.28548580408096313,0.06013049557805061,-0.054454874247312546
1774158176992349000,17.252348876953125,-0.186813622713089,-0.24864493310451508,0.0014377911575138569
1774158177012342000,17.272342041015627,-0.1763642281293869,-0.5753260850906372,0.03249374032020569
1774158177032333800,17.292333740234376,-0.1373455822467804,-0.7674867510795593,0.09672411531209946
1774158177052327000,17.312326904296874,-0.008917608298361301,-0.9211980104446411,0.2353251576423645
1774158177072319000,17.332319091796876,-0.09433111548423767,-1.1968759298324585,0.41710880398750305
1774158177092311800,17.352311767578126,-0.24987666308879852,-1.1532570123672485,0.5066562294960022
1774158177112303900,17.372303955078124,-0.30415189266204834,-0.58743816614151,0.3309675455093384
1774158177132297000,17.392296875,-0.03799659013748169,0.28397345542907715,-0.04938608407974243
1774158177152289000,17.4122890625,0.11417435109615326,-0.3292662501335144,-0.09718208760023117
1774158177172281900,17.43228173828125,0.005150172859430313,-1.3668502569198608,0.37476399540901184
1774158177192274000,17.45227392578125,0.05013837665319443,-0.8680101633071899,0.30636563897132874
1774158177212267000,17.47226708984375,0.13474412262439728,-0.44979721307754517,0.023070143535733223
1774158177232259000,17.492259033203126,0.09891563653945923,-0.16146022081375122,0.022877465933561325
1774158177252252000,17.512251953125,0.12415740638971329,-0.16025274991989136,0.03480149805545807
1774158177272244000,17.532243896484374,0.11074646562337875,-0.22604933381080627,0.006070256698876619
1774158177292237000,17.552237060546876,0.0555257573723793,-0.2523997128009796,-0.01714945025742054
1774158177312228900,17.572228759765625,0.1596197634935379,-0.29979974031448364,-0.0762919932603836
1774158177332222000,17.592221923828124,0.23861761391162872,-0.4180011749267578,0.014520466327667236
1774158177352213800,17.6122138671875,0.18758855760097504,-0.2839374244213104,0.018279369920492172
1774158177372206800,17.632206787109375,0.231122225522995,-0.42316773533821106,-0.34940436482429504
1774158177392199000,17.652198974609377,0.36153644323349,-0.8048176169395447,-0.3854738175868988
1774158177412191700,17.672191650390626,0.5114396810531616,-0.7458136677742004,-0.4317861795425415
1774158177432184000,17.69218408203125,0.4296921193599701,-0.5670782327651978,-0.36542046070098877
1774158177452177200,17.71217724609375,0.21767303347587585,-0.024146821349859238,-0.30548202991485596
1774158177472169000,17.7321689453125,0.02310705929994583,0.0038096928037703037,-0.43230751156806946
1774158177492162000,17.752162109375,-0.07224802672863007,-0.09389129281044006,-0.22479823231697083
1774158177512153900,17.77215380859375,-0.057613614946603775,0.438048779964447,-0.20485344529151917
1774158177532147000,17.79214697265625,-0.03729061782360077,0.916991114616394,-0.20998843014240265
1774158177552139000,17.812138916015623,-0.10532830655574799,1.0119175910949707,-0.08058367669582367
1774158177572131800,17.8321318359375,-0.16539058089256287,0.7272509932518005,0.05628975108265877
1774158177592124000,17.8521240234375,-0.23734238743782043,0.4615897834300995,0.11818533390760422
1774158177612117000,17.872116943359377,-0.34211450815200806,0.25353777408599854,0.034500036388635635
1774158177632108800,17.89210888671875,-0.2749954164028168,0.1552940309047699,0.04161334037780762
1774158177652102000,17.912101806640624,-0.22416673600673676,0.11678685992956161,0.08821453154087067
1774158177672094000,17.932093994140626,-0.1845921277999878,0.136291041970253,0.06643771380186081
1774158177692087000,17.952087158203124,-0.17757104337215424,0.27092528343200684,-0.005448572337627411
1774158177712079000,17.9720791015625,-0.16214612126350403,0.26237839460372925,-0.07278288900852203
1774158177732072000,17.992072021484375,-0.12711018323898315,0.13210561871528625,-0.07464602589607239
1774158177752064000,18.01206396484375,-0.12836772203445435,-0.05446798726916313,-0.01725517213344574
1774158177772057000,18.03205712890625,-0.12986646592617035,-0.18688806891441345,0.07982677966356277
1774158177792049000,18.052048828125,-0.07143307477235794,-0.27436384558677673,0.11679184436798096
1774158177812042000,18.0720419921875,-0.026666907593607903,-0.2544567584991455,0.07517755031585693
1774158177832033800,18.09203369140625,-0.011962704360485077,-0.27318674325942993,-0.016366073861718178
1774158177852027000,18.11202685546875,-0.02438165992498398,-0.31083372235298157,-0.02808493748307228
1774158177872019000,18.13201904296875,-0.05315481498837471,-0.2733159065246582,0.011686738580465317
1774158177892012000,18.152011962890626,-0.02801985666155815,-0.21796557307243347,-0.038758471608161926
1774158177912004000,18.172004150390624,0.0047414409928023815,-0.20499169826507568,-0.020677197724580765
1774158177931997200,18.1919970703125,0.07430687546730042,-0.1755797564983368,-0.024102428928017616
1774158177951989000,18.211989013671875,0.15939827263355255,-0.3435162901878357,0.05231579393148422
1774158177971982000,18.231982177734373,0.28784680366516113,-0.4118008017539978,0.15692876279354095
1774158177991974100,18.25197412109375,0.37200769782066345,-0.569121241569519,-0.003849899861961603
1774158178011967000,18.271967041015625,0.33035367727279663,-0.31084463000297546,0.19276410341262817
1774158178031959000,18.291958984375,0.19347193837165833,-0.2070106565952301,0.31504595279693604
1774158178051952000,18.3119521484375,0.033546335995197296,-0.515257716178894,0.25916630029678345
1774158178071944000,18.33194384765625,-0.1422152817249298,-0.5844482779502869,0.10899025201797485
1774158178091937000,18.35193701171875,-0.2717640995979309,-0.3920164704322815,0.17725639045238495
1774158178111928800,18.3719287109375,-0.3204991817474365,-0.26852908730506897,0.32698506116867065
1774158178131922000,18.391921875,-0.18256545066833496,-0.4372422397136688,0.30710452795028687
1774158178151914200,18.411914306640625,-0.02195894904434681,-0.5811706185340881,0.24452826380729675
1774158178171907000,18.431906982421875,0.12044670432806015,-0.4412447214126587,0.13121247291564941
1774158178191899100,18.451899169921877,0.10652259737253189,-0.49022984504699707,0.1363033503293991
1774158178211892200,18.471892333984375,0.09980384260416031,-0.4998294711112976,0.10770833492279053
1774158178231884000,18.491884033203124,0.09023521095514297,-0.4145659804344177,0.12070509046316147
1774158178251877000,18.511877197265626,0.0895768478512764,-0.32451915740966797,0.07903648167848587
1774158178271869000,18.531868896484376,0.08457822352647781,-0.2669525444507599,0.07081717252731323
1774158178291862000,18.551862060546874,0.04451524838805199,-0.20172429084777832,0.14354155957698822
1774158178311854000,18.57185400390625,0.0019566009286791086,-0.11934365332126617,0.12475109845399857
1774158178331847000,18.591846923828125,-0.014370376244187355,0.044390954077243805,0.06496220827102661
1774158178351839000,18.6118388671875,-0.045284468680620193,0.13126645982265472,0.09360650181770325
1774158178371832000,18.63183203125,-0.053684089332818985,0.006694965995848179,0.09024118632078171
1774158178391824100,18.65182421875,-0.010117877274751663,0.023994596675038338,0.029775317758321762
1774158178411817000,18.67181689453125,0.06692086160182953,0.10401272773742676,-0.029280412942171097
1774158178431809000,18.69180908203125,0.2027730643749237,-0.04325314238667488,-0.04242949187755585
1774158178451802000,18.711802001953124,0.3098910450935364,-0.014959974214434624,0.01909925602376461
1774158178471794200,18.731794189453126,0.28542062640190125,-0.08934473246335983,0.16127663850784302
1774158178491787000,18.751787109375,0.2584313452243805,0.018125785514712334,-0.017081674188375473
1774158178511779000,18.771779052734374,0.3144117593765259,-0.468195378780365,-0.051685843616724014
1774158178531772200,18.791772216796875,0.4208028018474579,-0.46107596158981323,-0.11986663192510605
1774158178551764000,18.811763916015625,0.38389065861701965,-0.25149691104888916,-0.1436530351638794
1774158178571757000,18.831757080078123,0.30038145184516907,-0.0005008869338780642,-0.22037366032600403
1774158178591748900,18.851748779296877,0.13707204163074493,0.1269228458404541,-0.2648187577724457
1774158178611741200,18.8717412109375,-0.07617855072021484,0.00019233953207731247,-0.1552983820438385
1774158178631734000,18.891734130859376,-0.19941173493862152,0.33676981925964355,-0.03859281539916992
1774158178651726000,18.91172607421875,-0.22557489573955536,0.3568149209022522,-0.02806040085852146
1774158178671719200,18.93171923828125,-0.14861750602722168,0.26239013671875,-0.013289712369441986
1774158178691711000,18.9517109375,-0.13526968657970428,0.32604312896728516,0.013732314109802246
1774158178711704000,18.9717041015625,-0.14935925602912903,0.14400197565555573,0.10442426800727844
1774158178731696000,18.991696044921873,-0.2504234313964844,0.2534000873565674,0.03253423050045967
1774158178751689000,19.01168896484375,-0.2627358138561249,0.2623310089111328,-0.07216941565275192
1774158178771681000,19.031680908203125,-0.2725304365158081,0.17745502293109894,-0.032879654318094254
1774158178791674000,19.051674072265627,-0.3060745298862457,0.29546472430229187,-0.1543409824371338
1774158178811666000,19.071666015625,-0.32296064496040344,0.058277469128370285,-0.076448455452919
1774158178831659000,19.091658935546874,-0.30534598231315613,-0.310690701007843,-0.020763885229825974
1774158178851651000,19.111651123046876,-0.2547815442085266,-0.5126743912696838,-0.06395568698644638
1774158178871643600,19.1316435546875,-0.08995304256677628,-0.46375563740730286,-0.027974121272563934
1774158178891635700,19.1516357421875,-0.010668352246284485,-0.3276239037513733,0.07190252840518951
1774158178911628500,19.171628662109374,0.03237309679389,-0.17757047712802887,0.12103519588708878
1774158178931620600,19.19162060546875,0.11382737755775452,-0.08744029700756073,0.12949994206428528
1774158178951613700,19.21161376953125,0.1339215487241745,-0.15253596007823944,0.08667147904634476
1774158178971605500,19.23160546875,0.2034270167350769,-0.16387303173542023,0.001771923154592514
1774158178991598600,19.2515986328125,0.2317357361316681,-0.17534780502319336,-0.07313241809606552
1774158179011590400,19.27159033203125,0.2860555350780487,-0.14490893483161926,-0.06874807178974152
1774158179031583500,19.29158349609375,0.36445507407188416,-0.083800308406353,0.023121275007724762
1774158179051575600,19.311575439453126,0.4712035655975342,-0.19365036487579346,-0.00978553481400013
1774158179071568400,19.331568359375,0.46509891748428345,-0.6625155806541443,-0.37622955441474915
1774158179091560700,19.351560791015626,0.46800628304481506,-1.0090389251708984,-0.766330897808075
1774158179111553800,19.3715537109375,0.6017423868179321,-0.41862010955810547,-0.738210916519165
1774158179131545600,19.391545654296873,0.6014144420623779,-0.25579071044921875,-0.43956366181373596
1774158179151538700,19.41153857421875,0.3689730763435364,-0.22279921174049377,-0.2980263829231262
1774158179171530500,19.431530517578125,0.07288997620344162,-0.058418791741132736,-0.043204620480537415
1774158179191523600,19.451523681640627,-0.10978507250547409,-0.34980881214141846,0.16833679378032684
1774158179211515600,19.471515625,-0.1010773554444313,-0.7886543273925781,0.5166416764259338
1774158179231508500,19.491508544921874,0.021638289093971252,-1.1737431287765503,0.5613319277763367
1774158179251500500,19.51150048828125,0.13443805277347565,-0.9424673318862915,0.29472094774246216
1774158179271493600,19.53149365234375,0.12972107529640198,-0.783579409122467,0.2577759921550751
1774158179291485400,19.5514853515625,0.2743225395679474,-0.6433954238891602,0.2879573404788971
1774158179311478500,19.571478515625,0.46605825424194336,-0.3846922218799591,0.14867867529392242
1774158179331470600,19.591470703125,0.5442174673080444,-0.04618368297815323,0.07418420910835266
1774158179351463700,19.611463623046873,0.5564741492271423,0.050892267376184464,0.15387290716171265
1774158179371455700,19.631455810546875,0.41268643736839294,-0.02926008775830269,0.21930451691150665
1774158179391448600,19.651448486328125,0.2021813541650772,0.011570436879992485,0.18053793907165527
1774158179411440600,19.671440673828126,0.013795915059745312,0.05939359590411186,0.17879527807235718
1774158179431433700,19.691433837890624,-0.038528479635715485,0.12254807353019714,0.184445321559906
1774158179451425500,19.711425537109374,-0.014957351610064507,0.19045282900333405,0.19605858623981476
1774158179471418600,19.731418701171876,-0.030930472537875175,0.15770553052425385,0.1156405657529831
1774158179491410400,19.751410400390625,-0.062493737787008286,0.005396699532866478,-0.009789115749299526
1774158179511403500,19.771403564453124,-0.0722154974937439,0.011616234667599201,-0.1907581090927124
1774158179531395600,19.7913955078125,-0.047318097203969955,0.027758175507187843,-0.22667710483074188
1774158179551388400,19.811388427734375,-0.006767059676349163,0.04928317293524742,-0.1683817058801651
1774158179571380700,19.831380615234377,0.12997426092624664,0.004122895188629627,-0.14120294153690338
1774158179591373600,19.85137353515625,0.3144785761833191,0.32911160588264465,-0.2809599041938782
1774158179611365600,19.87136572265625,0.1960967779159546,0.5215665102005005,-0.5015339851379395
1774158179631358700,19.891358642578126,0.1102977991104126,0.056927263736724854,-0.6758347749710083
1774158179651350500,19.9113505859375,-0.015834011137485504,0.29927438497543335,-0.5820414423942566
1774158179671343600,19.931343505859374,-0.189512237906456,0.6515834331512451,-0.537056028842926
1774158179691335700,19.951335693359376,-0.3751079738140106,0.8220118880271912,-0.1157938539981842
1774158179711327500,19.971327392578125,-0.5354317426681519,0.8042454123497009,0.26524046063423157
1774158179731320600,19.991320556640623,-0.33229631185531616,1.0852218866348267,0.09086371958255768
1774158179751312400,20.0113125,-0.0693579837679863,1.3524025678634644,-0.335224986076355
1774158179771305500,20.031305419921875,-0.1608428955078125,1.632454752922058,-0.6380856037139893
1774158179791297800,20.0512978515625,-0.33595338463783264,1.705106258392334,-0.4330374598503113
1774158179811290600,20.07129052734375,-0.3130866289138794,1.7270865440368652,-0.12497391551733017
1774158179831282700,20.09128271484375,-0.39717644453048706,1.3780522346496582,0.03943980857729912
1774158179851275800,20.11127587890625,-0.5751143097877502,0.7981571555137634,-0.06860636919736862
1774158179871267600,20.131267578125,-0.7235915660858154,0.985051155090332,-0.2369929701089859
1774158179891260700,20.1512607421875,-0.8275168538093567,1.3237621784210205,-0.3438665568828583
1774158179911252500,20.17125244140625,-0.8842887282371521,1.500771164894104,-0.38693174719810486
1774158179931245600,20.19124560546875,-0.8393766283988953,1.497571587562561,-0.3971055746078491
1774158179951237400,20.2112373046875,-0.857863187789917,1.5400149822235107,-0.46241000294685364
1774158179971230500,20.23123046875,-0.9382652640342712,1.59297776222229,-0.41425830125808716
1774158179991222500,20.251222412109374,-0.9250166416168213,1.7578154802322388,-0.0732199102640152
1774158180011215400,20.27121533203125,-1.0339468717575073,2.111666679382324,0.23318612575531006
1774158180031207700,20.291207763671874,-1.2613924741744995,2.000542402267456,0.4178231954574585
1774158180051200500,20.311200439453124,-1.2729676961898804,1.3019801378250122,0.5491697788238525
1774158180071192600,20.331192626953126,-1.051967978477478,0.2071191519498825,0.43785667419433594
1774158180091185700,20.351185546875,-0.6890106797218323,-1.28054678440094,0.021245889365673065
1774158180111177500,20.371177490234373,-0.3504933714866638,-2.5088160037994385,-0.4939681887626648
1774158180131170600,20.391170654296875,-0.21032480895519257,-1.9342002868652344,-0.39518195390701294
1774158180151162600,20.41116259765625,-0.3325352370738983,-0.36340636014938354,0.2339247465133667
1774158180171155500,20.431155517578127,-0.46528229117393494,0.6596256494522095,0.7803570628166199
1774158180191147500,20.4511474609375,-0.6278265714645386,0.6851643323898315,0.8316130638122559
1774158180211140600,20.471140625,-0.5666472911834717,-0.7806097269058228,0.1673946976661682
1774158180231132400,20.49113232421875,-0.2428581863641739,-0.9201481938362122,-0.22754913568496704
1774158180251125500,20.51112548828125,0.1525285691022873,-0.14096079766750336,-0.12722361087799072
1774158180271117600,20.53111767578125,0.33180496096611023,-0.17757685482501984,-0.21737347543239594
1774158180291110400,20.5511103515625,0.31346040964126587,-0.4910820424556732,-0.3095231056213379
1774158180311102700,20.571102783203123,0.2816537618637085,-0.6102425456047058,-0.2565520405769348
1774158180331095600,20.591095458984373,0.36167556047439575,-0.4868529736995697,-0.08084160834550858
1774158180351087600,20.611087646484375,0.47458335757255554,-0.2828023433685303,0.08269421011209488
1774158180371080700,20.631080810546877,0.3164859414100647,-0.09410753846168518,0.13487590849399567
1774158180391072500,20.651072509765626,0.03303021565079689,0.5183955430984497,0.2368735373020172
1774158180411065600,20.671065673828124,-0.06020772084593773,1.2982500791549683,0.4219166040420532
1774158180431057400,20.691057373046874,-0.19022856652736664,1.7235969305038452,0.5357829928398132
1774158180451050500,20.711050537109376,-0.2828768193721771,1.9669383764266968,0.5795604586601257
1774158180471042600,20.73104248046875,-0.15496288239955902,2.0383198261260986,0.5366202592849731
1774158180491035400,20.751035400390624,0.1618601381778717,1.3364354372024536,0.13638752698898315
1774158180511027500,20.77102734375,0.32110267877578735,0.45478034019470215,-0.30506324768066406
1774158180531020500,20.7910205078125,0.23618711531162262,0.8005329966545105,-0.04164331778883934
1774158180551012600,20.8110126953125,0.2514241635799408,1.1039999723434448,0.11789148300886154
1774158180571004700,20.831004638671875,0.2033422440290451,1.080096960067749,-0.014127017930150032
1774158180590997500,20.85099755859375,0.1859690546989441,0.9815056324005127,-0.12034546583890915
1774158180610989600,20.870989501953126,0.18294718861579895,0.8331324458122253,-0.03605400770902634
1774158180630982700,20.890982666015624,0.15882328152656555,0.8879733085632324,0.1292175054550171
1774158180650974500,20.910974365234374,0.2546495199203491,0.5662202835083008,0.002712015528231859
1774158180670967600,20.930967529296876,0.398538738489151,0.25323742628097534,-0.2797638773918152
1774158180690959400,20.95095947265625,0.2841108739376068,0.7650200128555298,-0.09072069823741913
1774158180710952400,20.970952392578123,0.1739082783460617,1.1070486307144165,0.18875618278980255
1774158180730944500,20.990944580078125,0.3028621971607208,0.6453399062156677,-0.057175152003765106
1774158180750937300,21.010937255859375,0.4330683648586273,0.6246548295021057,-0.2644121050834656
1774158180770929700,21.0309296875,0.39366409182548523,1.4175759553909302,-0.025846512988209724
1774158180790922800,21.0509228515625,0.20539094507694244,1.595413088798523,-0.09625982493162155
1774158180810914600,21.07091455078125,-0.01062561385333538,1.364113688468933,-0.4719064235687256
1774158180830907600,21.09090771484375,-0.07344642281532288,1.5353835821151733,-0.619854211807251
1774158180850899500,21.1108994140625,-0.14653441309928894,1.9740079641342163,-0.5334051251411438
1774158180870893300,21.130893310546874,-0.2879626154899597,2.345503568649292,-0.40220004320144653
1774158180890885000,21.150885009765624,-0.31674304604530334,2.413762092590332,-0.31975722312927246
1774158180910878200,21.170878173828125,-0.27555105090141296,2.1899280548095703,-0.3157249689102173
1774158180930870300,21.190870361328123,-0.25198256969451904,1.732602596282959,-0.30856239795684814
1774158180950863000,21.210863037109377,-0.16291499137878418,1.3634421825408936,-0.22217556834220886
1774158180970855200,21.230855224609375,-0.17006558179855347,1.3643525838851929,-0.03507090359926224
1774158180990848300,21.25084814453125,-0.3207562267780304,1.5049651861190796,0.1289575695991516
1774158181010840000,21.270840087890626,-0.41001424193382263,1.5488121509552002,0.19289007782936096
1774158181030833200,21.290833251953124,-0.43434298038482666,1.4287651777267456,0.151042640209198
1774158181050825200,21.3108251953125,-0.4233277142047882,1.2813680171966553,0.12511208653450012
1774158181070818300,21.330818359375,-0.3959704339504242,1.0699279308319092,0.10883274674415588
1774158181090810400,21.350810302734374,-0.3817046284675598,0.836808979511261,0.04601847752928734
1774158181110803200,21.37080322265625,-0.3098517060279846,0.7058618664741516,-0.04717327281832695
1774158181130795300,21.390795166015625,-0.21230448782444,0.6020113229751587,-0.09105324745178223
1774158181150788400,21.410788330078127,-0.1810024082660675,0.5723898410797119,-0.04658655449748039
1774158181170780200,21.4307802734375,-0.26128432154655457,0.542810320854187,-0.012730044312775135
1774158181190773200,21.450773193359375,-0.3501504063606262,0.44041019678115845,0.022235387936234474
1774158181210765000,21.47076513671875,-0.43240219354629517,0.23414041101932526,0.09184097498655319
1774158181230758100,21.490758056640626,-0.44989508390426636,0.022924553602933884,0.11959030479192734
1774158181250750200,21.510750244140624,-0.42482098937034607,-0.1529466211795807,0.1350572556257248
1774158181270742300,21.5307421875,-0.49023476243019104,0.044640228152275085,0.3472704589366913
1774158181290735400,21.5507353515625,-0.45584383606910706,0.5432356595993042,0.6717402935028076
1774158181310727200,21.57072705078125,-0.11446163803339005,-0.16429275274276733,0.34969329833984375
1774158181330720300,21.59072021484375,0.11370506882667542,-1.4833167791366577,-0.49048012495040894
1774158181350712300,21.61071240234375,0.16783742606639862,-0.046500030905008316,-0.39033737778663635
1774158181370705200,21.630705078125,0.4309020936489105,0.6137404441833496,-0.5518309473991394
1774158181390697200,21.650697265625,0.7361348867416382,0.04329985752701759,-1.0772533416748047
1774158181410690300,21.670690185546874,0.915819525718689,-0.959757924079895,-1.529282569885254
1774158181430682000,21.69068212890625,0.819190502166748,-1.1823220252990723,-1.3469239473342896
1774158181450675200,21.71067529296875,0.46942609548568726,-0.5686279535293579,-0.6678577065467834
1774158181470667000,21.7306669921875,0.18811532855033875,0.3599158823490143,-0.13769502937793732
1774158181490660000,21.75066015625,0.062423523515462875,0.8779593110084534,0.10395729541778564
1774158181510652400,21.77065234375,-0.06564990431070328,0.7360114455223083,0.23717857897281647
1774158181530645200,21.790645263671873,-0.09136952459812164,0.5430377721786499,0.42514142394065857
1774158181550637300,21.81063720703125,-0.15004685521125793,0.7484162449836731,0.7352328896522522
1774158181570630400,21.83063037109375,-0.2828189730644226,1.0676064491271973,1.018422245979309
1774158181590622200,21.850622314453126,-0.3688576817512512,1.3123198747634888,1.2035129070281982
1774158181610615300,21.870615234375,-0.26909199357032776,1.3891499042510986,1.2450997829437256
1774158181630607000,21.890607177734374,-0.09010596573352814,1.172139286994934,1.0718210935592651
1774158181650600200,21.91060009765625,0.11156032234430313,0.6518459916114807,0.7708085179328918
1774158181670592300,21.93059228515625,0.27938178181648254,0.11706330627202988,0.5564395189285278
1774158181690585000,21.950585205078124,0.2259855568408966,-0.6540360450744629,0.10485105216503143
1774158181710577200,21.9705771484375,0.1674172580242157,-0.20794913172721863,-0.09335790574550629
1774158181730570000,21.990570068359375,0.22277279198169708,0.6264826059341431,-0.12835705280303955
1774158181750562300,22.010562255859377,0.37220919132232666,0.8518978357315063,-0.3757467269897461
1774158181770555100,22.03055517578125,0.6572926640510559,1.1330111026763916,-0.6291844844818115
1774158181790547200,22.050547119140624,0.8216860890388489,1.4999496936798096,-0.7244002223014832
1774158181810540300,22.070540283203126,0.7607026100158691,1.3880747556686401,-0.6536710262298584
1774158181830532400,22.090532470703124,0.7122368812561035,0.327806681394577,-0.46725547313690186
1774158181850525200,22.110525146484374,0.8904778957366943,-1.0036170482635498,-0.35751765966415405
1774158181870516500,22.1305166015625,0.9492532014846802,-0.5305503606796265,-0.24735215306282043
1774158181890509600,22.150509521484373,0.846893310546875,0.2171614021062851,-0.27919796109199524
1774158181910501400,22.17050146484375,0.7062145471572876,-0.36684346199035645,-0.6002594232559204
1774158181930494500,22.190494384765625,0.3024802803993225,-0.7222718596458435,-0.8528807759284973
1774158181950486800,22.21048681640625,-0.12099867314100266,0.5563213229179382,-0.6726858615875244
1774158181970479600,22.230479736328125,-0.24719269573688507,1.5758076906204224,-0.5866817235946655
1774158181990471700,22.2504716796875,-0.12331382930278778,1.766173243522644,-0.4172927439212799
1774158182010463500,22.27046337890625,0.035748038440942764,1.1622570753097534,-0.03292107582092285
1774158182030456600,22.29045654296875,0.05530224367976189,-0.024377450346946716,0.38352274894714355
1774158182050448600,22.31044873046875,0.05759551748633385,-0.5378085374832153,0.6754552721977234
1774158182070441500,22.33044140625,0.017183566465973854,-0.13984519243240356,0.8616733551025391
1774158182090433500,22.35043359375,-0.07684772461652756,0.04934735596179962,0.9429196119308472
1774158182110426600,22.370426513671877,-0.28211718797683716,-0.2885262966156006,0.6990085244178772
1774158182130418400,22.39041845703125,-0.40249520540237427,-0.6988592147827148,0.11362455040216446
1774158182150411500,22.41041162109375,-0.3216646909713745,0.024626053869724274,-0.07169895619153976
1774158182170403600,22.430403564453126,-0.24721084535121918,0.27520260214805603,-0.003872780129313469
1774158182190396700,22.450396728515624,-0.17301970720291138,-0.15490269660949707,-0.032862477004528046
1774158182210388700,22.470388671875,-0.09140653908252716,-0.5695757865905762,0.028094077482819557
1774158182230381600,22.490381591796876,-0.15453341603279114,-0.8577378392219543,0.20619817078113556
1774158182250373600,22.51037353515625,-0.18928997218608856,-1.0231983661651611,0.32686689496040344
1774158182270366700,22.53036669921875,-0.10291288048028946,-1.0268131494522095,0.19330912828445435
1774158182290358500,22.550358642578125,-0.052107423543930054,-0.91387939453125,0.02959117293357849
1774158182310351600,22.5703515625,-0.14727039635181427,-0.8109157085418701,0.009408279322087765
1774158182330343400,22.590343505859376,-0.1823100745677948,-0.6674062013626099,-0.05992153286933899
1774158182350336500,22.61033642578125,-0.10795748233795166,-0.3024740517139435,-0.18324747681617737
1774158182370328600,22.63032861328125,-0.006746174301952124,-0.3085138201713562,-0.23258769512176514
1774158182390321400,22.6503212890625,0.14376330375671387,-0.5106022357940674,-0.46308696269989014
1774158182410313700,22.670313720703124,0.3253496587276459,-0.1403495967388153,-0.6494591236114502
1774158182430306600,22.690306640625,0.29258838295936584,-0.17698882520198822,-0.5578624606132507
1774158182450298600,22.710298583984375,0.2650100588798523,-0.23294398188591003,-0.47934916615486145
1774158182470291700,22.730291748046874,0.26896658539772034,-0.4480341672897339,-0.2749377191066742
1774158182490283500,22.750283447265623,0.1952531337738037,-0.579746663570404,0.018431194126605988
1774158182510276600,22.770276611328125,0.0597277507185936,-0.5650268793106079,0.3772861659526825
1774158182530268700,22.7902685546875,-0.04743797332048416,-0.37278786301612854,0.6379445195198059
1774158182550261500,22.810261474609376,-0.06182615086436272,-0.4128282368183136,0.6023617386817932
1774158182570253600,22.830253662109374,-0.01977481134235859,-0.42286890745162964,0.30470025539398193
1774158182590246700,22.85024658203125,0.05487054958939552,-0.3852626383304596,0.11867991834878922
1774158182610238500,22.870238525390626,0.07391305267810822,-0.40488165616989136,0.10028890520334244
1774158182630230800,22.890230712890624,0.06537580490112305,-0.45195648074150085,0.12634342908859253
1774158182650223600,22.9102236328125,0.09010043740272522,-0.4287984073162079,0.1733362227678299
1774158182670215700,22.930215576171875,0.14162038266658783,-0.37336283922195435,0.21952557563781738
1774158182690208800,22.950208740234373,0.1728515326976776,-0.3228861391544342,0.21681004762649536
1774158182710200600,22.97020068359375,0.17504693567752838,-0.2513085901737213,0.2488328367471695
1774158182730193700,22.990193603515625,0.14975649118423462,-0.19685788452625275,0.27529096603393555
1774158182750185500,23.010185546875,0.10913025587797165,-0.18601775169372559,0.36398032307624817
1774158182770178600,23.030178466796876,0.04693417623639107,-0.17723330855369568,0.475430965423584
1774158182790170600,23.050170654296874,0.04275381565093994,-0.0005882317200303078,0.40820932388305664
1774158182810163500,23.07016357421875,0.09548000246286392,0.24527588486671448,0.11916714161634445
1774158182830155500,23.090155517578125,0.135770782828331,0.2994549572467804,-0.05140194296836853
1774158182850148600,23.110148681640624,0.1596662849187851,0.20937061309814453,-0.08345720171928406
1774158182870140700,23.130140625,0.26509523391723633,0.0006187320686876774,0.000744490884244442
1774158182890133500,23.150133544921875,0.40923577547073364,-0.22376513481140137,0.10180611908435822
1774158182910125800,23.170125732421877,0.4851076602935791,-0.34006428718566895,-0.007114776410162449
1774158182930118700,23.19011865234375,0.5558301210403442,-0.6015808582305908,-0.1762930154800415
1774158182950110700,23.21011083984375,0.6146842241287231,-0.80695641040802,-0.11954570561647415
1774158182970103800,23.230103759765626,0.4711425006389618,-0.718872606754303,-0.24814815819263458
1774158182990095600,23.250095703125,0.29434263706207275,-0.5044980049133301,-0.27785786986351013
1774158183010088700,23.270088623046874,0.0823245421051979,-0.04678552225232124,-0.40882834792137146
1774158183030080500,23.29008056640625,-0.08761842548847198,0.4338551163673401,-0.49570631980895996
1774158183050073600,23.310073486328125,-0.20507751405239105,0.6555296778678894,-0.4654381275177002
1774158183070065700,23.330065673828123,-0.19311518967151642,0.7952479124069214,-0.19482488930225372
1774158183090058500,23.35005859375,-0.14284799993038177,0.7072812914848328,0.11494442820549011
1774158183110050600,23.370050537109375,-0.2227700650691986,0.7636383175849915,0.3727288246154785
1774158183130043600,23.390043701171876,-0.34377098083496094,0.9748948812484741,0.382213294506073
1774158183150035700,23.41003564453125,-0.350347101688385,0.8212941884994507,-0.14987590909004211
1774158183170028800,23.43002880859375,-0.3424403667449951,0.8040339946746826,-0.30094411969184875
1774158183190020600,23.4500205078125,-0.45568764209747314,0.6438570618629456,-0.08023691922426224
1774158183210013700,23.470013671875,-0.48851507902145386,0.49741196632385254,0.11114062368869781
1774158183230005800,23.490005859375,-0.49740102887153625,0.3387243449687958,0.12344524264335632
1774158183249998600,23.50999853515625,-0.5145873427391052,0.3324917256832123,-0.008071914315223694
1774158183269990700,23.52999072265625,-0.526390016078949,0.343118816614151,-0.04370740056037903
1774158183289982500,23.549982421875,-0.5144693851470947,0.2171047031879425,0.0020248047076165676
1774158183309975600,23.5699755859375,-0.4406079649925232,0.06833785027265549,0.07640835642814636
1774158183329967600,23.589967529296874,-0.3462105095386505,-0.17360717058181763,0.11815058439970016
1774158183349960400,23.60996044921875,-0.3333749771118164,-0.40284883975982666,0.06261956691741943
1774158183369952800,23.629952880859374,-0.3706521987915039,-0.5944214463233948,0.09725251793861389
1774158183389945900,23.64994580078125,-0.3914460241794586,0.04732256010174751,0.03395529091358185
1774158183409937700,23.669937744140626,-0.350818395614624,0.044965919107198715,0.047050707042217255
1774158183429930800,23.6899306640625,-0.21050147712230682,0.08149705082178116,0.016697878018021584
1774158183449922600,23.709922607421873,0.04409222677350044,-0.06170615181326866,-0.20316922664642334
1774158183469915600,23.72991552734375,0.3050025999546051,-0.24165305495262146,-0.3958532214164734
1774158183489907700,23.74990771484375,0.46442097425460815,-0.24502484500408173,-0.14147242903709412
1774158183509900500,23.769900634765627,0.4799455404281616,-0.299520343542099,-0.13139837980270386
1774158183529892600,23.789892578125,0.4332452416419983,-0.12212556600570679,-0.10390588641166687
1774158183549885700,23.8098857421875,0.2950257360935211,0.18316161632537842,-0.08782839775085449
1774158183569877500,23.82987744140625,0.21864765882492065,0.008928865194320679,-0.09599017351865768
1774158183589870600,23.84987060546875,0.12259890884160995,-0.11941447854042053,-0.028332442045211792
1774158183609862700,23.869862548828124,0.0332648903131485,-0.2795884311199188,0.11158804595470428
1774158183629855700,23.889855712890625,0.0031068692915141582,-0.18873417377471924,0.2008509337902069
1774158183649847800,23.909847900390623,0.03349069133400917,-0.055363863706588745,0.14612804353237152
1774158183669840600,23.929840576171873,0.10123970359563828,-0.05308632180094719,0.08448585867881775
1774158183689832700,23.949832763671875,0.17071454226970673,-0.09065736085176468,0.09092152863740921
1774158183709825800,23.96982568359375,0.19511570036411285,-0.09327901154756546,0.02631775662302971
1774158183729817600,23.989817626953126,0.2068585306406021,-0.1746412217617035,-0.023440739139914513
1774158183749810700,24.009810791015624,0.19398538768291473,-0.23253729939460754,-0.038734883069992065
1774158183769802500,24.029802490234374,0.17088140547275543,-0.24354147911071777,0.015722231939435005
1774158183789795600,24.049795654296876,0.1484951376914978,-0.18721938133239746,0.0787186324596405
1774158183809787600,24.06978759765625,0.11489344388246536,-0.15208639204502106,0.12298237532377243
1774158183829780500,24.089780517578124,0.05858270078897476,-0.05588557571172714,0.17952381074428558
1774158183849772800,24.109772705078125,-0.006839301902800798,0.013507645577192307,0.20922885835170746
1774158183869765600,24.129765625,0.010976903140544891,0.07550891488790512,0.17451240122318268
1774158183889758500,24.149758544921873,0.05970298498868942,0.1893010139465332,0.11842158436775208
1774158183909750500,24.16975048828125,0.08027398586273193,0.38678985834121704,0.018065158277750015
1774158183929743600,24.18974365234375,0.10412862151861191,0.5687248110771179,0.11606322228908539
1774158183949735400,24.2097353515625,0.15106040239334106,0.4637059271335602,0.28551560640335083
1774158183969728500,24.229728515625,0.18493206799030304,0.34002071619033813,0.34596070647239685
1774158183989720300,24.24972021484375,0.1436995267868042,0.30553334951400757,0.29654884338378906
1774158184009713400,24.26971337890625,0.16624107956886292,-0.06571211665868759,0.06071992591023445
1774158184029705500,24.28970556640625,0.30207374691963196,-0.09830625355243683,-0.4239194393157959
1774158184049698300,24.3096982421875,0.5432712435722351,0.3151540160179138,-0.5129600763320923
1774158184069690400,24.3296904296875,0.5568422675132751,0.28505897521972656,-0.5777666568756104
1774158184089683500,24.349683349609375,0.4492189288139343,0.10718857496976852,-0.6395269632339478
1774158184109675500,24.369675537109377,0.18648523092269897,0.3677021563053131,-0.6691522598266602
1774158184129668400,24.38966845703125,-0.07082363963127136,0.7911602258682251,-0.5824876427650452
1774158184149660400,24.409660400390624,-0.25983619689941406,1.0100494623184204,-0.38030046224594116
1774158184169653500,24.429653564453126,-0.353773832321167,1.1192400455474854,-0.09280224144458771
1774158184189645600,24.4496455078125,-0.24284158647060394,0.9721880555152893,0.22950096428394318
1774158184209638400,24.469638427734374,-0.18839146196842194,0.3496456742286682,0.4132767915725708
1774158184229630500,24.48963037109375,-0.21148477494716644,0.45710262656211853,0.4173625707626343
1774158184249623600,24.50962353515625,-0.3276190757751465,0.6279460191726685,0.2599712610244751
1774158184269615400,24.529615478515623,-0.45441076159477234,0.45289164781570435,-0.10276766121387482
1774158184289608400,24.5496083984375,-0.5047165751457214,0.7176218628883362,-0.2510017454624176
1774158184309600300,24.569600341796875,-0.5242556929588318,0.7845947742462158,-0.178348571062088
1774158184329593300,24.58959326171875,-0.4918598532676697,0.5470535755157471,-0.007137273903936148
