time,seconds_elapsed,z,y,x
1774158159793747700,0.053747802734375,0.12660640478134155,-0.003412840887904167,-0.018074074760079384
1774158159813740500,0.073740478515625,0.10777147114276886,-0.03217258304357529,-0.030788272619247437
1774158159833733600,0.093733642578125,0.08360541611909866,-0.1003444492816925,0.036602750420570374
1774158159853723600,0.1137236328125,0.09816917777061462,-0.1514582335948944,0.10205339640378952
1774158159873716500,0.133716552734375,0.14819826185703278,-0.19720174372196198,0.128159299492836
1774158159893708500,0.15370849609375,0.2607511579990387,-0.30453938245773315,0.08673489838838577
1774158159913701600,0.17370166015625,0.544391930103302,-0.4830169975757599,-0.08251085877418518
1774158159933694500,0.193694580078125,0.8357071280479431,-0.5832562446594238,-0.2527787387371063
1774158159953686500,0.2136865234375,1.0602781772613525,-0.7014952898025513,-0.25749385356903076
1774158159973679600,0.2336796875,1.3109830617904663,-0.7201120853424072,0.02736877277493477
1774158159993672400,0.25367236328125,1.3503819704055786,-0.6819359660148621,0.5773259401321411
1774158160013664500,0.27366455078125,1.3231359720230103,-0.5145269632339478,1.1616634130477905
1774158160033657600,0.29365771484375,1.4320166110992432,-0.41648775339126587,1.4192315340042114
1774158160053649400,0.3136494140625,1.5640941858291626,-0.40026965737342834,1.3499571084976196
1774158160073642500,0.333642578125,1.6545343399047852,-0.43630701303482056,1.1287070512771606
1774158160093635600,0.353635498046875,1.6678181886672974,-0.46850648522377014,0.8018311858177185
1774158160113627400,0.37362744140625,1.6510179042816162,-0.38625556230545044,0.3800261616706848
1774158160133620500,0.393620361328125,1.6495635509490967,-0.3649212419986725,-0.07198257744312286
1774158160153613300,0.41361328125,1.671125888824463,-0.4302046298980713,-0.40788042545318604
1774158160173605400,0.43360546875,1.6907719373703003,-0.4271409511566162,-0.5342096090316772
1774158160193598500,0.453598388671875,1.6890076398849487,-0.3320234715938568,-0.4372828006744385
1774158160213591300,0.47359130859375,1.6312674283981323,-0.18399140238761902,-0.22385413944721222
1774158160233583400,0.493583251953125,1.4305592775344849,-0.2587207853794098,-0.025599902495741844
1774158160253576400,0.513576416015625,1.2021093368530273,-0.38056331872940063,0.13323980569839478
1774158160273568500,0.533568603515625,1.164910078048706,-0.3809627890586853,0.2280595302581787
1774158160293561300,0.553561279296875,1.184704065322876,-0.36056697368621826,0.2726355195045471
1774158160313554400,0.573554443359375,1.0465946197509766,-0.24847212433815002,0.377512663602829
1774158160333546500,0.59354638671875,0.9169143438339233,-0.14754071831703186,0.4357624053955078
1774158160353539600,0.61353955078125,0.9039533138275146,-0.13436473906040192,0.4039362967014313
1774158160373532400,0.633532470703125,0.7924254536628723,-0.18170614540576935,0.3327587842941284
1774158160393524500,0.6535244140625,0.6254900097846985,-0.2585444748401642,0.3820304572582245
1774158160413517600,0.673517578125,0.5529100298881531,-0.28071129322052,0.5069340467453003
1774158160433510700,0.6935107421875,0.4820273518562317,-0.18440179526805878,0.5947858691215515
1774158160453502500,0.71350244140625,0.3920154571533203,-0.08179286867380142,0.5808868408203125
1774158160473495600,0.73349560546875,0.2592414319515228,-0.01774304360151291,0.4932784140110016
1774158160493487400,0.7534873046875,0.1102876216173172,0.014536865055561066,0.43527424335479736
1774158160513480400,0.77348046875,0.036727387458086014,0.0008149272762238979,0.41479507088661194
1774158160533473500,0.7934736328125,0.009660882875323296,-0.024602549150586128,0.38260143995285034
1774158160553465300,0.81346533203125,-0.011651862412691116,-0.04856167733669281,0.29448196291923523
1774158160573458400,0.83345849609375,-0.06720513850450516,-0.06678355485200882,0.15504656732082367
1774158160593451500,0.853451416015625,-0.17676332592964172,-0.07959336042404175,-0.010240120813250542
1774158160613443300,0.873443359375,-0.31765466928482056,-0.09462743997573853,-0.06644293665885925
1774158160633436400,0.8934365234375,-0.4596339166164398,-0.04644579440355301,-0.016279904171824455
1774158160653428500,0.913428466796875,-0.5653963088989258,0.10286752879619598,0.04940882697701454
1774158160673421300,0.93342138671875,-0.6006094217300415,0.30132734775543213,0.0512504056096077
1774158160693414400,0.953414306640625,-0.5870057344436646,0.3937142789363861,0.021337246522307396
1774158160713406500,0.973406494140625,-0.5644063949584961,0.31392863392829895,-0.023380422964692116
1774158160733399300,0.9933994140625,-0.5764931440353394,0.10145711898803711,-0.08314309269189835
1774158160753392400,1.013392333984375,-0.625165581703186,-0.15158313512802124,-0.1469058245420456
1774158160773384400,1.033384521484375,-0.6402415037155151,-0.25092968344688416,-0.19187968969345093
1774158160793377300,1.053377197265625,-0.5550909042358398,-0.26344576478004456,-0.1709967851638794
1774158160813370400,1.073370361328125,-0.4057573676109314,-0.2646383047103882,-0.0906156525015831
1774158160833362400,1.093362548828125,-0.40804874897003174,-0.24618686735630035,-0.0764007642865181
1774158160853356000,1.11335595703125,-0.5127836465835571,-0.19338543713092804,-0.16695649921894073
1774158160873348000,1.13334814453125,-0.5080088973045349,-0.11156035214662552,-0.2556679844856262
1774158160893341200,1.153341064453125,-0.39143699407577515,-0.11721131205558777,-0.23740163445472717
1774158160913334000,1.173333984375,-0.272678941488266,-0.17663788795471191,-0.14083541929721832
1774158160933326000,1.193326171875,-0.2076735645532608,-0.25300854444503784,-0.06989572942256927
1774158160953319200,1.213319091796875,-0.2270403355360031,-0.24051113426685333,-0.04754381626844406
1774158160973312300,1.233312255859375,-0.28099676966667175,-0.15306144952774048,-0.05348852649331093
1774158160993304000,1.253303955078125,-0.3253903388977051,-0.07221747189760208,-0.047091346234083176
1774158161013297200,1.273297119140625,-0.4127662777900696,-0.04249366372823715,-0.05463181808590889
1774158161033289000,1.2932890625,-0.5344551205635071,-0.08732185512781143,-0.15970709919929504
1774158161053282000,1.313281982421875,-0.6472554802894592,-0.2105143666267395,-0.29909536242485046
1774158161073275100,1.333275146484375,-0.7612070441246033,-0.2548424005508423,-0.3378952145576477
1774158161093267000,1.353266845703125,-0.8213516473770142,-0.14715562760829926,-0.27707260847091675
1774158161113260000,1.373260009765625,-0.7331885099411011,-0.04676377773284912,-0.19661985337734222
1774158161133253000,1.393253173828125,-0.6336339116096497,-0.047740623354911804,-0.17901794612407684
1774158161153245000,1.413244873046875,-0.5873591303825378,-0.11350632458925247,-0.17525117099285126
1774158161173238000,1.433238037109375,-0.5332503318786621,-0.1817982941865921,-0.20849089324474335
1774158161193230000,1.45322998046875,-0.4499090909957886,-0.22817164659500122,-0.25452229380607605
1774158161213223000,1.473222900390625,-0.3939419686794281,-0.2502710819244385,-0.2824900150299072
1774158161233216000,1.493216064453125,-0.40014874935150146,-0.1944829225540161,-0.3088473081588745
1774158161253208000,1.5132080078125,-0.3781640827655792,-0.12258876860141754,-0.3362259566783905
1774158161273201000,1.533200927734375,-0.2702261507511139,-0.13437698781490326,-0.28479471802711487
1774158161293194000,1.553194091796875,-0.1241549700498581,-0.25732502341270447,-0.22589172422885895
1774158161313186000,1.57318603515625,-0.03389059007167816,-0.2797919809818268,-0.14837215840816498
1774158161333179000,1.593178955078125,0.014003166928887367,-0.1515336036682129,-0.06739688664674759
1774158161353172000,1.613171875,0.024098943918943405,-0.01314909104257822,-0.01010802760720253
1774158161373164300,1.633164306640625,0.05469813197851181,-0.026257703080773354,-0.008668056689202785
1774158161393157000,1.6531572265625,0.059057727456092834,-0.12998436391353607,-0.0233513955026865
1774158161413149200,1.673149169921875,0.03093261644244194,-0.1704753339290619,-0.026628946885466576
1774158161433142300,1.693142333984375,0.007666974328458309,-0.11573831737041473,-0.018087390810251236
1774158161453135000,1.713135009765625,-0.04333575442433357,-0.07856272161006927,-0.025170866400003433
1774158161473127200,1.733127197265625,-0.052433114498853683,-0.03362374007701874,-0.04652116447687149
1774158161493120000,1.7531201171875,-0.09293580055236816,-0.034867703914642334,-0.08419930189847946
1774158161513113000,1.773113037109375,-0.1226406991481781,-0.06640006601810455,-0.13937386870384216
1774158161533105200,1.793105224609375,-0.19621291756629944,-0.06485116481781006,-0.1937178075313568
1774158161553098000,1.813097900390625,-0.25336942076683044,-0.06825122237205505,-0.23082974553108215
1774158161573090000,1.833090087890625,-0.2306332141160965,-0.12365589290857315,-0.25362348556518555
1774158161593083100,1.853083251953125,-0.17797718942165375,-0.19679135084152222,-0.24806120991706848
1774158161613076000,1.873075927734375,-0.1322062462568283,-0.16173377633094788,-0.1366414725780487
1774158161633068000,1.893068115234375,-0.05050178989768028,-0.03421682491898537,0.0408765934407711
1774158161653061000,1.91306103515625,0.06860622763633728,-0.029219137504696846,0.09903417527675629
1774158161673054000,1.933053955078125,0.0723588839173317,-0.17687304317951202,0.05140646547079086
1774158161693046000,1.9530458984375,-0.035055987536907196,-0.31748607754707336,-0.009456618689000607
1774158161713039000,1.9730390625,-0.19046448171138763,-0.3567839562892914,-0.11088337749242783
1774158161733031000,1.993031005859375,-0.34005478024482727,-0.373515784740448,-0.23459945619106293
1774158161753024000,2.01302392578125,-0.4325157403945923,-0.33627787232398987,-0.36112332344055176
1774158161773017000,2.03301708984375,-0.47836071252822876,-0.24064482748508453,-0.45193415880203247
1774158161793009200,2.053009033203125,-0.4821075201034546,-0.12725941836833954,-0.4270282983779907
1774158161813002000,2.073001953125,-0.3872518539428711,-0.07363799959421158,-0.30249354243278503
1774158161832995000,2.0929951171875,-0.22691383957862854,-0.11057737469673157,-0.12472169101238251
1774158161852986600,2.112986572265625,-0.08643076568841934,-0.15721145272254944,0.013771206140518188
1774158161872979700,2.132979736328125,-0.022901587188243866,-0.18311868607997894,0.015281750820577145
1774158161892971800,2.1529716796875,-0.05124907195568085,-0.1397496461868286,-0.07471898198127747
1774158161912964600,2.172964599609375,-0.024760207161307335,-0.02605903148651123,-0.1261579394340515
1774158161932957700,2.192957763671875,0.20552971959114075,-0.007239803206175566,-0.04836540296673775
1774158161952949800,2.21294970703125,0.5229969024658203,-0.04935396835207939,0.11536680907011032
1774158161972942600,2.232942626953125,0.725507915019989,-0.058995943516492844,0.26825329661369324
1774158161992935700,2.252935791015625,0.8063409924507141,-0.17052432894706726,0.30644461512565613
1774158162012927700,2.272927734375,0.7992415428161621,-0.36263811588287354,0.26704633235931396
1774158162032920600,2.292920654296875,0.7004424929618835,-0.3993609845638275,0.21904952824115753
1774158162052912600,2.31291259765625,0.567999541759491,-0.21333251893520355,0.183470219373703
1774158162072905500,2.332905517578125,0.46249920129776,0.06102820113301277,0.15184518694877625
1774158162092898600,2.352898681640625,0.4410572946071625,0.17632229626178741,0.10996032506227493
1774158162112890600,2.372890625,0.45886051654815674,0.15846580266952515,0.12298930436372757
1774158162132883500,2.392883544921875,0.5372285842895508,0.12272165715694427,0.2739473879337311
1774158162152876500,2.41287646484375,0.6150298714637756,0.09900780767202377,0.41928914189338684
1774158162172868600,2.43286865234375,0.7601953148841858,0.14992371201515198,0.48094239830970764
1774158162192861400,2.452861328125,0.8758649230003357,0.1350739300251007,0.5185912251472473
1774158162212854500,2.4728544921875,0.934717059135437,0.05669550225138664,0.5760310888290405
1774158162232846800,2.492846923828125,0.9817652702331543,-0.03526238352060318,0.634507954120636
1774158162252839700,2.512839599609375,1.0262954235076904,-0.09321010112762451,0.6965007781982422
1774158162272831700,2.532831787109375,1.0855646133422852,-0.031633295118808746,0.8096566200256348
1774158162292824800,2.552824951171875,1.1927931308746338,0.15228620171546936,0.9557392597198486
1774158162312817700,2.572817626953125,1.1435986757278442,0.2667161226272583,1.0210373401641846
1774158162332809700,2.592809814453125,1.071739673614502,0.23504766821861267,0.9262703061103821
1774158162352802800,2.612802734375,1.0747146606445312,0.2192535251379013,0.676636815071106
1774158162372795600,2.632795654296875,1.136149287223816,0.14405198395252228,0.37831613421440125
1774158162392787700,2.65278759765625,1.2095811367034912,0.06809809058904648,0.045875877141952515
1774158162412780800,2.67278076171875,1.3189414739608765,-0.05886917561292648,-0.19818764925003052
1774158162432772600,2.692772705078125,1.515188217163086,0.08514578640460968,-0.27809181809425354
1774158162452765700,2.712765625,1.5528125762939453,0.17265726625919342,-0.19508694112300873
1774158162472758800,2.7327587890625,1.3241177797317505,0.4768349826335907,0.09355977922677994
1774158162492750600,2.75275048828125,1.0371038913726807,0.7654809355735779,0.382217139005661
1774158162512743700,2.77274365234375,0.9344750046730042,0.9526670575141907,0.5405476689338684
1774158162532736500,2.792736572265625,0.8950753808021545,0.6890766620635986,0.49301955103874207
1774158162552728600,2.812728515625,0.7514974474906921,0.2847744822502136,0.3958357572555542
1774158162572721700,2.8327216796875,0.5860536098480225,0.05943829193711281,0.28433799743652344
1774158162592713500,2.85271337890625,0.4014004170894623,0.19465816020965576,0.16832803189754486
1774158162612706600,2.87270654296875,0.1364436000585556,0.40621116757392883,0.11215449869632721
1774158162632699600,2.89269970703125,-0.03767414018511772,0.7039759755134583,0.06149771437048912
1774158162652691700,2.912691650390625,-0.06374036520719528,0.8521763682365417,-0.09585515409708023
1774158162672684500,2.9326845703125,-0.12763412296772003,0.7942366600036621,-0.41818687319755554
1774158162692677600,2.952677734375,-0.1708814650774002,0.5854453444480896,-0.7154704928398132
1774158162712669700,2.972669677734375,-0.1497756391763687,0.2870035469532013,-0.8679601550102234
1774158162732662800,2.992662841796875,-0.08656418323516846,0.1715608388185501,-0.9197647571563721
1774158162752654600,3.012654541015625,-0.02508964017033577,0.267377644777298,-0.8896851539611816
1774158162772647700,3.032647705078125,-0.03074033558368683,0.3241160213947296,-0.7662457823753357
1774158162792640800,3.052640869140625,-0.1727217137813568,0.1950661689043045,-0.5968327522277832
1774158162812632600,3.072632568359375,-0.2674916386604309,0.1646328866481781,-0.5491105318069458
1774158162832625700,3.092625732421875,-0.3156362473964691,0.2682189345359802,-0.507544994354248
1774158162852618800,3.11261865234375,-0.3156290650367737,0.33871787786483765,-0.4426772892475128
1774158162872610600,3.132610595703125,-0.2939029932022095,0.2815485894680023,-0.38043922185897827
1774158162892603600,3.152603759765625,-0.2898792326450348,0.2836540937423706,-0.3925701677799225
1774158162912595700,3.172595703125,-0.28443092107772827,0.2592150568962097,-0.5487669706344604
1774158162932588500,3.192588623046875,-0.39527034759521484,0.18885992467403412,-0.7043924927711487
1774158162952581600,3.21258154296875,-0.5423617959022522,0.1278035044670105,-0.6954320669174194
1774158162972573700,3.23257373046875,-0.6233011484146118,0.1183471530675888,-0.5232869386672974
1774158162992566500,3.25256640625,-0.5927945971488953,0.19725394248962402,-0.3309800624847412
1774158163012559600,3.2725595703125,-0.5297823548316956,0.39186418056488037,-0.05085838586091995
1774158163032551700,3.2925517578125,-0.6401099562644958,0.7279540300369263,0.3792453110218048
1774158163052544500,3.31254443359375,-0.8492828607559204,0.5049973726272583,0.5958313941955566
1774158163072536800,3.332536865234375,-0.8247548937797546,0.10969720035791397,0.6175806522369385
1774158163092529400,3.352529296875,-0.4381549656391144,0.000904409505892545,0.6462472081184387
1774158163112522500,3.3725224609375,-0.06235711649060249,0.0128774493932724,0.5433005690574646
1774158163132514800,3.392514892578125,-0.0062973108142614365,-0.05933309718966484,0.36412709951400757
1774158163152507600,3.412507568359375,-0.23226092755794525,-0.008794290944933891,0.22591249644756317
1774158163172500700,3.432500732421875,-0.2820836305618286,0.17298296093940735,0.14645254611968994
1774158163192492800,3.452492919921875,-0.11125009506940842,0.19447679817676544,0.004024302586913109
1774158163212485600,3.472485595703125,-0.06367351859807968,0.21432560682296753,-0.2411830574274063
1774158163232477700,3.492477783203125,-0.1303473562002182,0.36795592308044434,-0.4470137059688568
1774158163252470800,3.512470703125,-0.18766416609287262,0.1795484572649002,-0.5744673013687134
1774158163272463600,3.532463623046875,-0.2612968385219574,-0.19838525354862213,-0.5797512531280518
1774158163292455700,3.55245556640625,-0.31734734773635864,-0.2831198573112488,-0.5664383769035339
1774158163312448800,3.57244873046875,-0.30720600485801697,-0.04832332208752632,-0.4667932689189911
1774158163332441600,3.592441650390625,-0.13172607123851776,0.29290884733200073,-0.2675773799419403
1774158163352433700,3.61243359375,0.04773609712719917,0.2688996493816376,-0.11537612974643707
1774158163372426800,3.6324267578125,-0.06449750065803528,0.026194851845502853,-0.06328229606151581
1774158163392418600,3.65241845703125,-0.2731569707393646,-0.1356039047241211,-0.028143487870693207
1774158163412411600,3.67241162109375,-0.43347102403640747,-0.3105863630771637,0.03528129309415817
1774158163432404700,3.69240478515625,-0.5714254379272461,-0.3466940224170685,0.06629699468612671
1774158163452396500,3.712396484375,-0.6798898577690125,-0.3313923180103302,0.08465496450662613
1774158163472389600,3.7323896484375,-1.060081124305725,-0.20537473261356354,0.1800195723772049
1774158163492381700,3.752381591796875,-1.5863456726074219,-0.23567643761634827,0.35133060812950134
1774158163512374500,3.77237451171875,-1.6220216751098633,-0.47377049922943115,0.4147180914878845
1774158163532367600,3.79236767578125,-0.04240604490041733,-0.01317971758544445,0.004752677399665117
1774158163552359700,3.812359619140625,0.6779020428657532,-0.11745046079158783,-0.24344834685325623
1774158163572352800,3.832352783203125,0.6141728758811951,-0.17548154294490814,0.002666356973350048
1774158163592345600,3.852345703125,0.46925777196884155,-0.4541184902191162,0.38009193539619446
1774158163612337700,3.872337646484375,0.5849148631095886,-0.941287100315094,0.7129042744636536
1774158163632330800,3.892330810546875,0.7792819142341614,-1.2617225646972656,0.8447940945625305
1774158163652322800,3.91232275390625,0.8773816227912903,-0.763530969619751,0.8322945833206177
1774158163672315600,3.932315673828125,0.8567516803741455,-0.5782449841499329,1.016068696975708
1774158163692308700,3.952308837890625,0.8649475574493408,-1.106946349143982,1.084235429763794
1774158163712300500,3.972300537109375,0.9149066209793091,-1.5118587017059326,1.3376083374023438
1774158163732293600,3.992293701171875,1.0873862504959106,-1.3977185487747192,1.6425442695617676
1774158163752286700,4.01228662109375,1.4073059558868408,-0.8889354467391968,1.474852442741394
1774158163772278500,4.032278564453125,1.4201679229736328,0.05312793329358101,0.9996630549430847
1774158163792271600,4.052271728515625,1.3218903541564941,0.1987501084804535,0.6848867535591125
1774158163812263700,4.072263671875,1.375014066696167,-0.3185233771800995,0.9338549971580505
1774158163832256500,4.092256591796875,1.458780288696289,-0.6580668091773987,1.3655669689178467
1774158163852249600,4.11224951171875,1.4664767980575562,-0.6773697137832642,1.4444546699523926
1774158163872241400,4.132241455078125,1.247917890548706,-0.6740804314613342,1.2702548503875732
1774158163892234500,4.152234375,1.1635915040969849,-0.4369581639766693,1.0598363876342773
1774158163912227600,4.1722275390625,1.2709894180297852,-0.1558721512556076,0.9432730078697205
1774158163932219400,4.192219482421875,1.391229271888733,-0.38235509395599365,1.017561912536621
1774158163952212500,4.21221240234375,1.557639479637146,-1.0392168760299683,1.309664011001587
1774158163972204500,4.23220458984375,1.8441517353057861,-1.9725892543792725,1.502577543258667
1774158163992197600,4.25219775390625,1.945784568786621,-2.2249627113342285,1.2855699062347412
1774158164012190500,4.2721904296875,1.7718322277069092,-2.100398302078247,0.9467106461524963
1774158164032182500,4.2921826171875,1.74026358127594,-1.674413800239563,0.7560799717903137
1774158164052175600,4.312175537109375,1.9079639911651611,-1.4307454824447632,0.47299525141716003
1774158164072167700,4.332167724609375,2.112558603286743,-1.4922301769256592,0.10270294547080994
1774158164092160500,4.352160400390625,2.0674006938934326,-2.136141538619995,-0.19897408783435822
1774158164112153600,4.372153564453125,2.078951835632324,-2.571845293045044,-0.11354733258485794
1774158164132145700,4.392145751953125,2.32919979095459,-2.3090078830718994,0.35421401262283325
1774158164152138500,4.412138427734375,2.324687957763672,-1.8664215803146362,1.0277175903320312
1774158164172131600,4.432131591796875,2.1294076442718506,-2.039003372192383,1.5746866464614868
1774158164192123400,4.452123291015625,2.0763089656829834,-2.041792392730713,1.9073010683059692
1774158164212116500,4.472116455078125,2.425039529800415,-1.653588891029358,1.876895785331726
1774158164232108500,4.492108642578125,2.839242935180664,-0.8961480855941772,1.4205665588378906
1774158164252101400,4.512101318359375,2.8711867332458496,-0.48745036125183105,0.5152313709259033
1774158164272094500,4.532094482421875,2.2874953746795654,-0.7049853205680847,-0.19664515554904938
1774158164292086500,4.55208642578125,1.6048996448516846,-0.8578880429267883,-0.6961258053779602
1774158164312079400,4.572079345703125,1.4153904914855957,-0.5104491710662842,-0.856938898563385
1774158164332071400,4.592071533203125,0.6265339255332947,-0.07112397998571396,-0.1611207127571106
1774158164352064500,4.612064453125,0.26457545161247253,0.27020353078842163,0.3264521360397339
1774158164372057300,4.632057373046875,0.5183225274085999,-0.06896894425153732,-0.4486861824989319
1774158164392049700,4.652049560546875,1.1225650310516357,0.04210830479860306,-0.16111938655376434
1774158164412042500,4.67204248046875,1.0845025777816772,-0.3882979452610016,0.7232069373130798
1774158164432035300,4.692035400390625,0.7013314962387085,-1.3627123832702637,1.3247921466827393
1774158164452027600,4.712027587890625,0.6838827133178711,-1.5272496938705444,1.0482031106948853
1774158164472020700,4.732020751953125,0.3910479247570038,-1.3781086206436157,0.8210328221321106
1774158164492012500,4.752012451171875,-0.05294790491461754,-1.440325140953064,1.0419836044311523
1774158164512005600,4.772005615234375,-0.2974567115306854,-1.4549580812454224,0.9581307768821716
1774158164531998700,4.791998779296875,-0.6296924352645874,-1.1393320560455322,0.6939505338668823
1774158164551990500,4.811990478515625,-0.916785717010498,-0.8336855173110962,0.8236083984375
1774158164571983600,4.831983642578125,-1.367996335029602,0.6076374650001526,2.022402286529541
1774158164591976700,4.851976806640625,-0.5975691080093384,0.03918495401740074,2.26277232170105
1774158164611968500,4.871968505859375,-0.20292115211486816,-0.535653293132782,1.165743350982666
1774158164631961600,4.891961669921875,0.2575433850288391,-1.411865472793579,0.996816098690033
1774158164651953400,4.911953369140625,0.6951915621757507,-2.3097281455993652,0.8013680577278137
1774158164671946500,4.931946533203125,0.9919074177742004,-1.8958567380905151,0.4415220022201538
1774158164691939600,4.951939697265625,1.2459261417388916,-0.6750487685203552,0.1271241307258606
1774158164711931400,4.971931396484375,1.5998064279556274,-0.13746970891952515,0.271114319562912
1774158164731924500,4.991924560546875,2.124155044555664,-0.34673717617988586,0.27931979298591614
1774158164751916500,5.01191650390625,2.7999680042266846,-0.6394143104553223,-0.049737460911273956
1774158164771909400,5.031909423828125,3.112866163253784,-1.499341607093811,-0.13896214962005615
1774158164791902500,5.05190234375,3.0522396564483643,-1.7527027130126953,-0.042209237813949585
1774158164811894500,5.07189453125,3.4470877647399902,-1.1487878561019897,-0.5541074275970459
1774158164831887400,5.091887451171875,2.5406129360198975,-0.3114577531814575,-0.6804988980293274
1774158164851880700,5.111880615234375,0.229122132062912,-0.07484175264835358,0.05836157873272896
1774158164871873000,5.131873046875,-0.3362158238887787,0.24416953325271606,0.35413092374801636
1774158164891865900,5.151865966796875,0.5238062143325806,0.380797415971756,-0.08868273347616196
1774158164911858000,5.17185791015625,0.6985884308815002,0.06405728310346603,0.15220046043395996
1774158164931851000,5.19185107421875,0.7366157174110413,-0.03202451020479202,0.3716025948524475
1774158164951843800,5.21184375,0.511969804763794,0.1262972205877304,0.22079789638519287
1774158164971836000,5.2318359375,0.015440208837389946,0.39511990547180176,0.027053987607359886
1774158164991829000,5.2518291015625,-0.10463346540927887,1.637741208076477,-0.5815560817718506
1774158165011820800,5.27182080078125,0.6205234527587891,2.0566048622131348,-1.3054357767105103
1774158165031814000,5.29181396484375,1.0934430360794067,0.46512293815612793,-1.0546873807907104
1774158165051807000,5.311806884765625,0.7046612501144409,-0.28094297647476196,-0.3871628940105438
1774158165071798800,5.331798828125,0.40740373730659485,-0.02959757298231125,-0.32587796449661255
1774158165091792000,5.3517919921875,0.47750958800315857,0.14305515587329865,-0.32583802938461304
1774158165111785000,5.371784912109375,0.738068163394928,-0.14448101818561554,-0.34535765647888184
1774158165131776800,5.39177685546875,0.8463469743728638,-0.15887939929962158,0.23298637568950653
1774158165151769900,5.411769775390625,0.5423692464828491,-0.22814129292964935,0.7543268203735352
1774158165171761700,5.43176171875,0.33780813217163086,-0.2857217490673065,0.9121918082237244
1774158165191754800,5.451754638671875,-0.3742484450340271,0.4254213273525238,1.742722749710083
1774158165211747800,5.471747802734375,-0.5794495344161987,-0.6072736978530884,1.033634901046753
1774158165231739600,5.49173974609375,-0.06906295567750931,-0.4969809949398041,0.3208613693714142
1774158165251732700,5.511732666015625,0.1617521494626999,-0.2553521394729614,0.42205163836479187
1774158165271725800,5.531725830078125,0.10013991594314575,-1.3925615549087524,0.44757378101348877
1774158165291718000,5.5517177734375,0.7564818263053894,-1.9635108709335327,0.11879882216453552
1774158165311710700,5.571710693359375,0.8498402833938599,-2.927499294281006,-0.25297340750694275
1774158165331702800,5.591702880859375,1.0105324983596802,-3.2392685413360596,-0.481591135263443
1774158165351696000,5.61169580078125,1.109852910041809,-1.4024187326431274,-0.4454946517944336
1774158165371689000,5.63168896484375,0.6509026885032654,-0.6800999641418457,-0.07673872262239456
1774158165391680800,5.6516806640625,0.1972440928220749,0.10036548227071762,-0.09526979178190231
1774158165411673900,5.671673828125,-0.05559002608060837,0.7754834890365601,0.11939110606908798
1774158165431666000,5.691666015625,-0.20936094224452972,0.6863477230072021,0.1869480460882187
1774158165451658800,5.71165869140625,-0.3347196578979492,0.9300389885902405,0.14794231951236725
1774158165471651800,5.73165185546875,-0.2574347257614136,0.4569494426250458,-0.0699700266122818
1774158165491644000,5.751643798828125,-0.17524531483650208,0.0024402544368058443,-0.05998370796442032
1774158165511636700,5.77163671875,-0.2942854166030884,-0.10395170003175735,-0.4399310350418091
1774158165531628800,5.79162890625,-0.14459872245788574,-0.15086381137371063,-0.20229823887348175
1774158165551622000,5.811621826171875,-0.17373238503932953,-0.04987035319209099,0.5212416052818298
1774158165571614700,5.83161474609375,-0.7040127515792847,0.22085700929164886,0.5946305990219116
1774158165591606800,5.851606689453125,-0.732231855392456,0.4417760670185089,0.6303917765617371
1774158165611600000,5.871599853515625,-0.8709250688552856,0.45619043707847595,0.48007526993751526
1774158165631591700,5.891591796875,-0.8528571128845215,0.4250418245792389,0.42971301078796387
1774158165651584800,5.911584716796875,-1.1951795816421509,0.06401733309030533,0.33235877752304077
1774158165671577900,5.931577880859375,-1.2656302452087402,0.30497828125953674,0.1911182850599289
1774158165691570000,5.95156982421875,-0.3618258535861969,0.5784393548965454,-0.05181126669049263
1774158165711562800,5.971562744140625,0.22288048267364502,0.6611313223838806,0.058758120983839035
1774158165731554800,5.991554931640625,0.6217445135116577,1.2081891298294067,0.008207329548895359
1774158165751548000,6.0115478515625,0.21478527784347534,0.6461316347122192,0.19612397253513336
1774158165771541000,6.031541015625,0.126907616853714,-0.17656971514225006,0.21055670082569122
1774158165791532800,6.05153271484375,0.023667512461543083,-0.14478754997253418,0.18526652455329895
1774158165811526000,6.07152587890625,0.14102104306221008,0.07102756947278976,0.03880971297621727
1774158165831518000,6.09151806640625,0.400003582239151,0.045588791370391846,-0.03899027779698372
1774158165851510800,6.1115107421875,0.3521710932254791,0.19745075702667236,0.07081717997789383
1774158165871504000,6.13150390625,0.7442954778671265,0.4883057475090027,-0.01817101426422596
1774158165891495700,6.15149560546875,0.34017276763916016,0.15369927883148193,0.10309229791164398
1774158165911488800,6.17148876953125,0.31329345703125,0.2425183653831482,0.3911150395870209
1774158165931480800,6.191480712890625,0.41224029660224915,0.3391229212284088,0.4881156086921692
1774158165951473700,6.2114736328125,0.46155086159706116,0.4719344973564148,0.7637000679969788
1774158165971466800,6.231466796875,0.3630245327949524,0.6039319634437561,0.7083779573440552
1774158165991458800,6.251458740234375,0.3097309470176697,0.4290405809879303,0.43193915486335754
1774158166011451600,6.27145166015625,0.47178536653518677,0.27296602725982666,0.2450702041387558
1774158166031443700,6.291443603515625,0.6353785395622253,0.2809818685054779,0.1424413025379181
1774158166051436500,6.3114365234375,0.9900935292243958,0.24188213050365448,0.28216883540153503
1774158166071429600,6.3314296875,2.35703444480896,1.3834149837493896,-0.21986684203147888
1774158166091422000,6.351421875,3.535224437713623,3.1462156772613525,-0.6509892344474792
1774158166111414800,6.371414794921875,3.928173542022705,2.2507002353668213,-0.021334582939743996
1774158166131406800,6.39140673828125,3.4646875858306885,3.1838035583496094,0.019229354336857796
1774158166151400000,6.41139990234375,2.3895046710968018,2.808234930038452,-0.37778323888778687
1774158166171391700,6.431391845703125,0.28305673599243164,0.11808083206415176,-1.7523274421691895
1774158166191384800,6.451384765625,-0.14459259808063507,-1.5998961925506592,-2.2814273834228516
1774158166211378000,6.4713779296875,-0.00752129964530468,-1.4432066679000854,-1.6696959733963013
1774158166231369700,6.49136962890625,0.2642204761505127,-0.5979688763618469,-1.1206063032150269
1774158166251362800,6.51136279296875,0.40537866950035095,0.26918086409568787,-0.09756064414978027
1774158166271354600,6.531354736328125,0.5977627635002136,-0.02526540867984295,0.4865424931049347
1774158166291347700,6.55134765625,0.8285557627677917,0.3580188751220703,0.9938443303108215
1774158166311340800,6.5713408203125,1.5810654163360596,1.6171627044677734,1.3947043418884277
1774158166331332600,6.59133251953125,1.4076441526412964,1.6394288539886475,0.6410902738571167
1774158166351325700,6.61132568359375,0.6194057464599609,0.7408341765403748,0.3560907244682312
1774158166371317800,6.63131787109375,0.1026933565735817,-0.12634435296058655,0.01600266806781292
1774158166391310600,6.651310546875,-0.19715194404125214,0.2151557207107544,0.07710383832454681
1774158166411303700,6.6713037109375,-0.6168826222419739,0.530491292476654,0.3533516824245453
1774158166431295700,6.691295654296875,-0.35886815190315247,-0.03833247348666191,0.13669899106025696
1774158166451288600,6.71128857421875,0.5269634127616882,-0.9473058581352234,-0.18886153399944305
1774158166471281000,6.731281005859375,0.8596662878990173,-1.7618889808654785,-0.2799408435821533
1774158166491274000,6.75127392578125,0.6242319345474243,-1.0990327596664429,-0.4365714490413666
1774158166511265800,6.771265869140625,0.5767900943756104,-0.10565558820962906,-0.6935886144638062
1774158166531259000,6.7912587890625,0.4054284691810608,0.7457335591316223,-1.2506377696990967
1774158166551252000,6.811251953125,-0.1779276579618454,0.7576469779014587,-1.086320161819458
1774158166571243800,6.831243896484375,-0.7382708787918091,0.9546290040016174,-0.20062977075576782
1774158166591236900,6.85123681640625,-0.6578644514083862,0.8723652958869934,0.13697116076946259
1774158166611228700,6.871228759765625,-0.18071971833705902,0.896835446357727,-0.3057950735092163
1774158166631221800,6.8912216796875,-0.16711948812007904,0.5384386777877808,-1.1676464080810547
1774158166651213800,6.9112138671875,0.011667042039334774,0.0961286649107933,-2.0065038204193115
1774158166671206700,6.93120654296875,-0.07035485655069351,-0.6185092926025391,-2.3732335567474365
1774158166691199700,6.95119970703125,-0.2738203704357147,-1.2805734872817993,-1.8704408407211304
1774158166711191800,6.97119189453125,-0.7346814274787903,-1.0649168491363525,-0.4426032602787018
1774158166731184600,6.9911845703125,-0.2500266134738922,-0.48132482171058655,1.3458646535873413
1774158166751177000,7.011177001953125,0.35852140188217163,0.9924330711364746,2.230665683746338
1774158166771169500,7.03116943359375,-0.2188444584608078,3.0292985439300537,1.8774055242538452
1774158166791161900,7.051161865234375,-0.03672659024596214,1.154214859008789,0.3882899582386017
1774158166811155000,7.071155029296875,0.31554198265075684,-1.103575587272644,-0.12021056562662125
1774158166831147800,7.091147705078125,0.433734655380249,-1.6968849897384644,-0.1327306181192398
1774158166851139800,7.111139892578125,0.2690834105014801,-1.6411700248718262,-0.09468789398670197
1774158166871132400,7.13113232421875,-0.04719281196594238,-1.323982834815979,-0.23842188715934753
1774158166891124200,7.151124267578125,-0.19360195100307465,-1.1944037675857544,0.12132323533296585
1774158166911117300,7.171117431640625,-0.219633549451828,-1.1591259241104126,0.7104623913764954
1774158166931109400,7.191109375,-0.21790675818920135,-1.217499017715454,1.3416105508804321
1774158166951102200,7.211102294921875,-0.29524630308151245,-2.07828950881958,1.3131471872329712
1774158166971095300,7.23109521484375,-0.25848400592803955,-1.6841723918914795,1.396675944328308
1774158166991087400,7.25108740234375,-0.23485325276851654,-0.7577609419822693,1.3412563800811768
1774158167011080200,7.271080078125,-0.21502496302127838,-2.157799243927002,0.32195913791656494
1774158167031072300,7.291072265625,-0.207454651594162,-1.4724316596984863,-0.6281273365020752
1774158167051065000,7.311065185546875,-0.1324259489774704,0.37249767780303955,-0.15052372217178345
1774158167071058200,7.33105810546875,0.06414196640253067,0.06638168543577194,-0.16103549301624298
1774158167091050500,7.351050537109375,-0.10126430541276932,-0.6771454811096191,-0.08559000492095947
1774158167111043300,7.371043212890625,-0.19010469317436218,-0.4075384736061096,0.09488576650619507
1774158167131035400,7.391035400390625,-0.12693025171756744,-0.7118632197380066,0.280449777841568
1774158167151028500,7.411028564453125,0.015460449270904064,-0.7019661068916321,0.14019545912742615
1774158167171020300,7.431020263671875,0.4813724756240845,-0.4953996241092682,-0.21580472588539124
1774158167191013400,7.451013427734375,0.6103789210319519,-0.1318858563899994,0.06365887075662613
1774158167211006500,7.47100634765625,0.8051787614822388,-0.10849984735250473,0.17393158376216888
1774158167230998300,7.490998291015625,0.5630590915679932,0.14613217115402222,0.3205426037311554
1774158167250991400,7.510991455078125,0.19194920361042023,0.2338886559009552,0.3346152603626251
1774158167270983200,7.530983154296875,0.005218197591602802,-0.08517268300056458,0.4065629541873932
1774158167290976300,7.550976318359375,0.07100652903318405,0.274142861366272,0.49285098910331726
1774158167310968300,7.57096826171875,0.024222515523433685,0.47627440094947815,0.6091986298561096
1774158167330961200,7.590961181640625,0.03472042828798294,0.3763613700866699,0.6978131532669067
1774158167350953200,7.610953125,0.09736037254333496,-0.12844212353229523,0.9446264505386353
1774158167370946300,7.6309462890625,0.5366804599761963,-0.39401760697364807,0.8997430801391602
1774158167390939100,7.650939208984375,0.682616651058197,0.025429192930459976,0.9303974509239197
1774158167410931500,7.670931396484375,0.28701499104499817,-0.1162903904914856,0.9724569916725159
1774158167430924300,7.69092431640625,0.08200591802597046,-0.7805304527282715,1.0322425365447998
1774158167450916400,7.710916259765625,-0.05585154891014099,-1.3131219148635864,0.9525810480117798
1774158167470909400,7.730909423828125,-0.4315793514251709,-1.0890462398529053,0.7303192019462585
1774158167490901200,7.7509013671875,-0.636590301990509,-0.33484455943107605,0.42387136816978455
1774158167510894300,7.770894287109375,-0.9701781272888184,-0.262184739112854,-0.2650502920150757
1774158167530887400,7.790887451171875,-0.6384800672531128,0.7599090337753296,-1.2169418334960938
1774158167550879200,7.810879150390625,-0.39050623774528503,1.4541783332824707,-1.5730767250061035
1774158167570872300,7.830872314453125,-0.3074731230735779,0.6508837342262268,-0.08057740330696106
1774158167590864400,7.850864501953125,-0.5857561230659485,-0.13563771545886993,1.1073474884033203
1774158167610857200,7.870857177734375,-0.6849865913391113,-0.3899509608745575,0.816216230392456
1774158167630849300,7.890849365234375,-0.000185888638952747,-0.8799070715904236,0.2753242552280426
1774158167650842400,7.91084228515625,0.4917747974395752,0.4958169460296631,-0.2688834071159363
1774158167670835200,7.930835205078125,0.6521953344345093,0.6044001579284668,-0.9662145376205444
1774158167690827300,7.9508271484375,1.2624012231826782,0.22427384555339813,-0.974163293838501
1774158167710820400,7.9708203125,0.9914852976799011,-0.6103451251983643,-1.3697071075439453
1774158167730812400,7.9908125,0.39123326539993286,-0.28781527280807495,-0.7792443633079529
1774158167750805500,8.010805419921875,0.5665587782859802,0.1085568368434906,0.19264481961727142
1774158167770797300,8.03079736328125,0.42878279089927673,-0.38993605971336365,0.5303581357002258
1774158167790790400,8.050790283203124,0.27597352862358093,-0.5382778644561768,0.20236003398895264
1774158167810783500,8.070783447265624,0.1386452317237854,0.19894425570964813,0.10477355122566223
1774158167830775300,8.090775390625,-0.10528434813022614,0.46563294529914856,0.9457055330276489
1774158167850768400,8.110768310546876,-0.7420344352722168,0.2555404305458069,1.9311411380767822
1774158167870761500,8.130761474609375,-0.509655773639679,-0.3906860053539276,0.9236369729042053
1774158167890754600,8.150754638671875,-0.47432389855384827,-0.15369608998298645,1.2777905464172363
1774158167910746400,8.170746337890625,-0.7284699082374573,0.4976438581943512,1.170680046081543
1774158167930739500,8.190739501953125,-0.558664858341217,1.344624638557434,1.0330811738967896
1774158167950731500,8.2107314453125,-0.6578375101089478,1.5411207675933838,1.6254569292068481
1774158167970724400,8.230724365234375,-0.7681587338447571,0.7430887818336487,0.6339197158813477
1774158167990717400,8.250717529296875,-0.19849951565265656,0.5332732200622559,0.14348925650119781
1774158168010709500,8.27070947265625,-0.0006980145117267966,-0.03924513980746269,-0.2276904135942459
1774158168030702300,8.290702392578124,-0.09983605146408081,0.496499240398407,-0.1147737205028534
1774158168050694400,8.3106943359375,-0.14530792832374573,0.490070641040802,0.2414030283689499
1774158168070687500,8.3306875,-0.1320003718137741,0.060440972447395325,0.995676577091217
1774158168090679300,8.35067919921875,0.1057533249258995,-0.09255176782608032,0.8139240741729736
1774158168110672400,8.37067236328125,0.16337108612060547,-0.2663358151912689,0.3629518449306488
1774158168130664400,8.39066455078125,0.15659840404987335,-0.14040344953536987,0.286204069852829
1774158168150657500,8.410657470703125,-0.1272660791873932,-0.2702370882034302,0.6825641989707947
1774158168170650400,8.430650390625,-0.14210441708564758,0.07397861778736115,0.9292418956756592
1774158168190642400,8.450642333984375,-0.032764337956905365,-0.08396627008914948,0.7550639510154724
1774158168210635500,8.470635498046875,0.11028149724006653,-0.49006423354148865,0.34278932213783264
1774158168230627600,8.490627685546874,0.25037682056427,-0.7709494233131409,0.006698116194456816
1774158168250620400,8.510620361328124,0.17031075060367584,-0.7385134696960449,-0.2517302334308624
1774158168270612500,8.530612548828126,0.09012003988027573,0.34250780940055847,-0.5234065055847168
1774158168290605600,8.55060546875,-0.07105287164449692,0.011036139912903309,-1.269985318183899
1774158168310597400,8.570597412109375,-0.03832954540848732,-0.30885425209999084,-0.8549034595489502
1774158168330590500,8.590590576171875,-0.05693279206752777,-0.5070288777351379,-0.3562856912612915
1774158168350583600,8.61058349609375,0.04180150851607323,-0.8068416714668274,-0.14307646453380585
1774158168370575400,8.630575439453125,0.029081985354423523,-0.4891079068183899,-0.20702534914016724
1774158168390568400,8.650568359375,-0.018077803775668144,-0.3601704239845276,-0.29049867391586304
1774158168410560300,8.670560302734375,0.08260460197925568,-0.20499682426452637,-0.4450016915798187
1774158168430553300,8.69055322265625,0.19262990355491638,0.634204089641571,-0.8339353203773499
1774158168450545700,8.710545654296874,-0.055334895849227905,0.1547435075044632,-0.776096522808075
1774158168470538500,8.73053857421875,-0.2588890790939331,-1.160871148109436,0.03205753490328789
1774158168490530600,8.750530517578126,-0.32050183415412903,-1.2986418008804321,0.14391615986824036
1774158168510523600,8.770523681640626,0.07948923110961914,0.538634181022644,-1.245164155960083
1774158168530516500,8.7905166015625,-0.3034895658493042,1.69802987575531,-2.1290481090545654
1774158168550508500,8.810508544921875,-0.20310677587985992,1.3005895614624023,-1.7126528024673462
1774158168570501400,8.83050146484375,-0.23185427486896515,0.30336201190948486,-1.1184245347976685
1774158168590493400,8.850493408203125,-0.6277616620063782,0.506742537021637,-1.148553490638733
1774158168610486500,8.870486572265625,0.22129003703594208,0.5748491883277893,-1.162095308303833
1774158168630478300,8.890478271484374,1.3041387796401978,-0.23276986181735992,-0.8271727561950684
1774158168650471400,8.910471435546874,1.3746888637542725,-0.6810866594314575,-0.048589374870061874
1774158168670463500,8.93046337890625,0.9786099791526794,-0.7232738137245178,0.3784801959991455
1774158168690456300,8.950456298828126,0.5894121527671814,-0.5596861839294434,0.08444803953170776
1774158168710449400,8.970449462890626,0.43786415457725525,-0.08018484711647034,-0.29153597354888916
1774158168730441200,8.990441162109375,0.3647814393043518,-0.04722397029399872,-0.28760993480682373
1774158168750434300,9.010434326171875,0.28590258955955505,0.20610789954662323,-0.5108387470245361
1774158168770426600,9.030426513671875,0.2459152340888977,0.002951581496745348,-0.4383014440536499
1774158168790419500,9.05041943359375,0.2610483765602112,0.020444555208086967,-0.10721486806869507
1774158168810411500,9.07041162109375,0.2708892822265625,0.0870472863316536,-0.05688272416591644
1774158168830404600,9.090404541015625,0.1422053426504135,-0.040178313851356506,-0.11403468996286392
1774158168850396400,9.110396484375,-0.0030059099663048983,-0.11838310211896896,-0.1250002533197403
1774158168870389000,9.130388916015624,0.11052650958299637,0.05199768766760826,-0.18668200075626373
1774158168890381000,9.150381103515626,0.2015826553106308,0.08171457052230835,-0.3362453877925873
1774158168910374100,9.1703740234375,0.3662048876285553,-0.5108712315559387,-0.9488989114761353
1774158168930367000,9.190366943359376,0.3805723786354065,-1.2118730545043945,-0.805083155632019
1774158168950359000,9.210359130859375,0.42687809467315674,-0.8587551712989807,0.27342140674591064
1774158168970352000,9.23035205078125,0.13205736875534058,-0.34695157408714294,0.7705180048942566
1774158168990344000,9.250343994140625,-0.7156102657318115,-0.9466695785522461,0.4289012849330902
1774158169010337000,9.2703369140625,-0.5349952578544617,0.20601814985275269,0.3152972459793091
1774158169030329000,9.2903291015625,-0.40335384011268616,0.8993308544158936,-0.09603145718574524
1774158169050322200,9.310322265625,-0.3654773235321045,0.9291446805000305,-0.3948836624622345
1774158169070314200,9.330314208984374,-0.5126076340675354,0.6034320592880249,-0.6405224800109863
1774158169090307000,9.35030712890625,-0.5996232032775879,-0.20569589734077454,-0.5744315981864929
1774158169110299100,9.370299072265626,-0.4567757844924927,-0.6955641508102417,-0.1903771311044693
1774158169130292200,9.390292236328126,-0.2969227433204651,-0.6328352689743042,0.48530250787734985
1774158169150285000,9.41028515625,-0.11886966228485107,-1.3648295402526855,0.6611611843109131
1774158169170277000,9.430277099609375,-0.06640832126140594,-1.22230064868927,-0.05355563759803772
1774158169190270200,9.450270263671875,-0.011346397921442986,-0.6782165765762329,-0.29860159754753113
1774158169210262000,9.470261962890625,0.007672034204006195,-0.35440921783447266,-0.17560137808322906
1774158169230255000,9.490255126953125,-0.04430115222930908,-0.6895096898078918,-0.1167609691619873
1774158169250247000,9.510246826171874,-0.036427780985832214,-0.7963895797729492,-0.0760769248008728
1774158169270240000,9.530239990234374,-0.26690492033958435,-1.0207091569900513,-0.19152788817882538
1774158169290232000,9.550232177734374,-0.26793745160102844,-0.8016005754470825,-0.03395823389291763
1774158169310225000,9.570224853515626,-0.14420777559280396,-0.05702946335077286,-0.09257706999778748
1774158169330217200,9.59021728515625,0.015923572704195976,-0.16783533990383148,-0.33683687448501587
1774158169350210000,9.6102099609375,-0.007417968939989805,-0.45230621099472046,-0.07388727366924286
1774158169370203100,9.630203125,-0.29272428154945374,-1.0160948038101196,0.09727782011032104
1774158169390195200,9.6501953125,-0.09071765094995499,-0.6413499116897583,0.2453511655330658
1774158169410188000,9.67018798828125,0.2088267207145691,-0.692473292350769,0.016938770189881325
1774158169430180000,9.69018017578125,0.46641430258750916,-0.6347034573554993,-0.12132855504751205
1774158169450173200,9.710173095703125,0.1683996617794037,0.4919942319393158,-0.17940305173397064
1774158169470165000,9.7301650390625,0.08276279270648956,0.6651801466941833,-0.23912496864795685
1774158169490158000,9.750157958984374,0.15499037504196167,0.03694843128323555,-0.10266432911157608
1774158169510150000,9.77014990234375,0.15073785185813904,-0.3983287215232849,0.2309304177761078
1774158169530143000,9.79014306640625,0.20635583996772766,-0.0650210753083229,0.2782641053199768
1774158169550135000,9.810135009765625,0.17366527020931244,-0.06788424402475357,0.13663586974143982
1774158169570128000,9.8301279296875,0.09321170300245285,-0.10043153166770935,0.15666018426418304
1774158169590120200,9.8501201171875,0.05278012529015541,0.2158271074295044,0.09650763124227524
1774158169610113000,9.870113037109375,-0.02984151802957058,0.5312082171440125,-0.003369697602465749
1774158169630105900,9.89010595703125,-0.0002442118711769581,0.7864698171615601,-0.14596731960773468
1774158169650098200,9.91009814453125,0.07179189473390579,0.6858635544776917,-0.266743540763855
1774158169670091300,9.93009130859375,0.11272574961185455,0.5406289100646973,-0.020926853641867638
1774158169690083000,9.9500830078125,0.11898231506347656,0.4136831760406494,-0.07530886679887772
1774158169710076200,9.970076171875,0.07423321902751923,0.4424858093261719,-0.05824120342731476
1774158169730068000,9.99006787109375,0.04211975634098053,0.24447205662727356,-0.0344860702753067
1774158169750061000,10.01006103515625,-0.06522907316684723,0.37995612621307373,0.012809804640710354
1774158169770053000,10.03005322265625,-0.04127127304673195,1.1047292947769165,-0.11661023646593094
1774158169790046000,10.0500458984375,-0.03838440775871277,1.3327957391738892,0.10434238612651825
1774158169810038000,10.0700380859375,0.014521950855851173,1.4876590967178345,0.2325485497713089
1774158169830031000,10.090031005859375,0.1329018622636795,0.8906289935112,0.05548056960105896
1774158169850024000,10.11002392578125,0.050519898533821106,0.020058663561940193,-0.21037454903125763
1774158169870016000,10.13001611328125,0.016512131318449974,-0.46540284156799316,-0.04416080191731453
1774158169890009000,10.150009033203125,0.18324199318885803,-0.3751848042011261,-0.3480442464351654
1774158169910001200,10.170001220703124,0.2539321482181549,-0.4007282555103302,-0.279181569814682
1774158169929994000,10.189993896484374,0.15584099292755127,-0.23114506900310516,-0.28620272874832153
1774158169949986000,10.209986083984376,0.13399375975131989,-0.24977174401283264,-0.2688112258911133
1774158169969979100,10.229979248046876,0.10539886355400085,-0.2977491319179535,-0.32608169317245483
1774158169989971200,10.24997119140625,0.060082778334617615,0.03475957736372948,-0.27473995089530945
1774158170009964000,10.269964111328125,-0.01098447386175394,0.1562923938035965,-0.030354976654052734
1774158170029956000,10.2899560546875,-0.029344040900468826,0.0494045689702034,0.1314600259065628
1774158170049949200,10.30994921875,-0.15295599400997162,0.25022926926612854,0.08248342573642731
1774158170069941000,10.32994091796875,-0.27110421657562256,0.19908326864242554,-0.1350204050540924
1774158170089934000,10.34993408203125,-0.190770223736763,-0.4177328050136566,0.1404375433921814
1774158170109927200,10.36992724609375,-0.02232714369893074,-1.0670658349990845,-0.0196064580231905
1774158170129919000,10.3899189453125,0.013524863868951797,-1.1956514120101929,-0.0261067021638155
1774158170149912000,10.409912109375,-0.0788538008928299,-1.144991159439087,0.19612982869148254
1774158170169903900,10.42990380859375,-0.16978104412555695,-0.3581978380680084,0.3017483949661255
1774158170189897000,10.44989697265625,-0.1962169110774994,0.14223650097846985,0.3292841613292694
1774158170209889300,10.46988916015625,-0.10640952736139297,0.7464326620101929,0.0341196209192276
1774158170229882000,10.489882080078125,-0.06497819721698761,0.6753861904144287,-0.41284695267677307
1774158170249874200,10.509874267578125,-0.2065901905298233,0.469561904668808,-0.15287929773330688
1774158170269867300,10.5298671875,-0.11059415340423584,0.7396495938301086,-0.07987698912620544
1774158170289859000,10.549859130859375,-0.05684410780668259,1.2864614725112915,-0.337687224149704
1774158170309852200,10.56985205078125,-0.04818404093384743,1.3727506399154663,-0.26672065258026123
1774158170329844000,10.589843994140624,-0.14500485360622406,1.3106006383895874,-0.11530235409736633
1774158170349837000,10.609837158203124,-0.06924059242010117,0.946066677570343,0.12625354528427124
1774158170369829000,10.6298291015625,-0.10939227044582367,0.5198588967323303,-0.11964277923107147
1774158170389822000,10.649822021484376,-0.05794026330113411,-0.3114390969276428,0.163742333650589
1774158170409815000,10.66981494140625,0.029088109731674194,-0.2511073350906372,-0.013168532401323318
1774158170429807000,10.68980712890625,-0.009578058496117592,-0.07611554116010666,-0.05476471036672592
1774158170449800000,10.709800048828125,-0.05137663707137108,0.12342153489589691,0.04850548505783081
1774158170469792000,10.7297919921875,-0.04972175136208534,0.3507356643676758,-0.06479471176862717
1774158170489784800,10.749784912109375,-0.016281768679618835,0.5131663680076599,-0.06783577054738998
1774158170509777200,10.769777099609374,-0.03832129016518593,0.727002739906311,-0.11533458530902863
1774158170529770200,10.789770263671874,-0.08133400231599808,0.9713837504386902,-0.14774897694587708
1774158170549762000,10.809761962890626,-0.11244984716176987,1.081309199333191,-0.11383602023124695
1774158170569755100,10.829755126953126,-0.17851008474826813,0.9480656385421753,-0.04392990842461586
1774158170589747000,10.849746826171875,-0.2345709651708603,0.771833062171936,-0.032105736434459686
1774158170609740000,10.869739990234375,-0.20149636268615723,0.5254307389259338,-0.013572268187999725
1774158170629732000,10.889732177734375,-0.11549516767263412,0.3431871831417084,-0.14650288224220276
1774158170649725000,10.909724853515625,-0.14065298438072205,0.22615456581115723,-0.26919952034950256
1774158170669718000,10.929718017578125,-0.17494864761829376,-0.03230467811226845,-0.23519520461559296
1774158170689710000,10.9497099609375,-0.09052031487226486,-0.09357016533613205,-0.07066085189580917
1774158170709703000,10.969702880859375,-0.0645371824502945,-0.05118701979517937,-0.16869314014911652
1774158170729695000,10.989695068359374,-0.09370225667953491,-0.130456805229187,-0.24915629625320435
1774158170749688000,11.00968798828125,-0.11138404905796051,-0.19179047644138336,-0.241488516330719
1774158170769680100,11.02968017578125,-0.09618725627660751,-0.23861657083034515,-0.2498878687620163
1774158170789673200,11.049673095703126,-0.13668940961360931,-0.2488473653793335,-0.23980513215065002
1774158170809665000,11.0696650390625,-0.19532795250415802,-0.10245686769485474,-0.18526573479175568
1774158170829658000,11.089658203125,-0.18366889655590057,0.04370806738734245,-0.2085380256175995
1774158170849650200,11.109650146484375,-0.16673173010349274,-0.022187594324350357,-0.22436732053756714
1774158170869643000,11.12964306640625,-0.13402704894542694,-0.09125987440347672,-0.15803730487823486
1774158170889634800,11.149634765625,-0.21121130883693695,-0.28044524788856506,-0.17663761973381042
1774158170909628000,11.1696279296875,-0.2584429979324341,-0.3086435794830322,-0.3550398647785187
1774158170929619700,11.18961962890625,-0.31103751063346863,-0.35413384437561035,-0.19830243289470673
1774158170949612800,11.20961279296875,-0.2923056185245514,-0.10779783874750137,0.08004077523946762
1774158170969604900,11.22960498046875,-0.211878702044487,-0.054608650505542755,0.06222555786371231
1774158170989597700,11.24959765625,-0.23271580040454865,0.05157104879617691,0.009643572382628918
1774158171009590800,11.2695908203125,-0.27592983841896057,0.03388819098472595,-0.0371771976351738
1774158171029583000,11.2895830078125,-0.2086685299873352,0.4098684787750244,0.2387704998254776
1774158171049575700,11.30957568359375,-0.010381801053881645,0.7781311869621277,0.6280929446220398
1774158171069568000,11.329568115234375,-0.07124142348766327,-0.8721426129341125,-0.08749496191740036
1774158171089561000,11.34956103515625,-0.08164612948894501,-1.0086405277252197,-0.3807239234447479
1774158171109553000,11.369552978515625,-0.0712030753493309,-0.6265310049057007,0.17043964564800262
1774158171129546000,11.3895458984375,-0.21754351258277893,-0.6403120756149292,0.08897115290164948
1774158171149537800,11.409537841796874,-0.25099948048591614,-0.351021945476532,0.051233094185590744
1774158171169531000,11.42953076171875,-0.20046092569828033,-0.2314891517162323,0.04621037095785141
1774158171189523000,11.44952294921875,-0.1741238683462143,-0.19410982728004456,0.06211397051811218
1774158171209515800,11.469515869140626,-0.15439437329769135,-0.017438644543290138,0.17455077171325684
1774158171229507800,11.4895078125,-0.1676422655582428,0.05694957077503204,0.24494050443172455
1774158171249501000,11.5095009765625,-0.18739572167396545,0.1761806160211563,0.28087693452835083
1774158171269493000,11.529492919921875,-0.1773390918970108,0.21863886713981628,0.30598974227905273
1774158171289485800,11.54948583984375,-0.2261604368686676,-0.06073871627449989,0.14824725687503815
1774158171309478000,11.569477783203125,-0.2650878429412842,-0.04704633727669716,0.24402597546577454
1774158171329471000,11.589470947265625,-0.2429410070180893,0.08437879383563995,0.40517890453338623
1774158171349464000,11.609464111328125,-0.2506982684135437,0.1308448314666748,0.39851275086402893
1774158171369455900,11.629455810546874,-0.26933106780052185,0.0876731276512146,0.29560261964797974
1774158171389449000,11.649448974609374,-0.3041026294231415,0.15372112393379211,0.2603437006473541
1774158171409441000,11.66944091796875,-0.32717201113700867,0.1461135298013687,0.19218754768371582
1774158171429433900,11.689433837890626,-0.3007635772228241,0.06021513789892197,0.10041289031505585
1774158171449426000,11.709426025390625,-0.2284715175628662,-0.02593945525586605,0.052558016031980515
1774158171469419000,11.7294189453125,-0.17560698091983795,0.008611598052084446,0.015164039097726345
1774158171489410800,11.749410888671875,-0.18587106466293335,0.1245962604880333,0.02257321961224079
1774158171509404000,11.76940380859375,-0.19506323337554932,0.22929230332374573,0.037043772637844086
1774158171529395700,11.789395751953125,-0.13158492743968964,0.24678874015808105,0.03711860626935959
1774158171549388800,11.809388916015624,-0.0879887118935585,0.26801785826683044,0.0007033408619463444
1774158171569381000,11.829381103515624,-0.0866110548377037,0.2324468195438385,-0.04216662794351578
1774158171589374000,11.8493740234375,-0.022906115278601646,0.21847747266292572,0.06203247979283333
1774158171609366000,11.869365966796876,0.09843815863132477,0.10375142842531204,0.05655781924724579
1774158171629359000,11.889359130859376,0.11891653388738632,0.11826565861701965,0.03593536466360092
1774158171649351000,11.909350830078125,0.09508337080478668,0.18587133288383484,0.04453018307685852
1774158171669344000,11.929343994140625,0.11414707452058792,0.3459526002407074,0.05071297660470009
1774158171689335800,11.949335693359375,0.18477384746074677,0.16550719738006592,-0.028249748051166534
1774158171709329000,11.969328857421875,0.17637130618095398,-0.05019525811076164,-0.09306523203849792
1774158171729321000,11.989321044921875,0.2018745392560959,0.020836306735873222,-0.10975073277950287
1774158171749313800,12.009313720703124,0.30149513483047485,0.2084709107875824,-0.10174127668142319
1774158171769307000,12.029306884765624,0.29863622784614563,0.24106641113758087,-0.1358310729265213
1774158171789299000,12.049298828125,0.3804272413253784,0.49778902530670166,-0.13646410405635834
1774158171809291800,12.069291748046876,0.3204467296600342,0.26299408078193665,-0.36737826466560364
1774158171829283800,12.089283935546876,0.2944191098213196,0.3242345452308655,-0.24073511362075806
1774158171849277000,12.10927685546875,0.3118303418159485,0.28437820076942444,-0.22702409327030182
1774158171869268500,12.1292685546875,0.3737344443798065,0.06119358167052269,-0.2590145170688629
1774158171889261600,12.149261474609375,0.45571452379226685,-0.1827154904603958,-0.20895667374134064
1774158171909253600,12.169253662109375,0.4738064408302307,-0.2146126925945282,-0.13736239075660706
1774158171929246500,12.18924658203125,0.4376910626888275,-0.044447094202041626,-0.16234204173088074
1774158171949238500,12.209238525390624,0.4216684103012085,-0.1231008917093277,-0.07642659544944763
1774158171969231600,12.229231689453124,0.24997228384017944,-0.3393099009990692,0.012469186447560787
1774158171989223400,12.249223388671876,0.18922159075737,-0.745301365852356,0.11447224766016006
1774158172009216500,12.269216552734376,0.31713828444480896,-0.6994497179985046,0.2189888060092926
1774158172029208300,12.289208251953125,0.3792051076889038,-0.491525262594223,0.11694632470607758
1774158172049201400,12.309201416015625,0.24677996337413788,-0.540502667427063,0.009888051077723503
1774158172069193700,12.32919384765625,0.21357619762420654,-1.0020936727523804,0.10648809373378754
1774158172089186300,12.349186279296875,0.14773966372013092,-1.5665283203125,0.2144925892353058
1774158172109178600,12.3691787109375,0.08899299055337906,-1.4116942882537842,0.2004055380821228
1774158172129171700,12.389171630859375,0.15030881762504578,-0.8891229629516602,0.3135267496109009
1774158172149163500,12.40916357421875,0.16114361584186554,-0.8932790756225586,0.3912913203239441
1774158172169156600,12.429156494140624,0.0481259822845459,-0.6429214477539062,0.3459440767765045
1774158172189148400,12.4491484375,-0.10326167196035385,-0.19035369157791138,0.22837059199810028
1774158172209141500,12.4691416015625,-0.11857564747333527,-0.16353780031204224,0.12680375576019287
1774158172229133600,12.489133544921875,-0.08684728294610977,-0.29044196009635925,0.09395525604486465
1774158172249126400,12.50912646484375,-0.02046133205294609,-0.44640758633613586,0.09499602019786835
1774158172269119500,12.529119384765625,-0.033370740711688995,-0.46108826994895935,0.08671705424785614
1774158172289111600,12.549111572265625,0.026512566953897476,-0.4757327139377594,-0.09666609019041061
1774158172309104400,12.5691044921875,0.105453722178936,-0.885094940662384,-0.07645376026630402
1774158172329096400,12.589096435546875,0.19556710124015808,-1.6564507484436035,0.01369557250291109
1774158172349089500,12.609089599609375,0.24627235531806946,-2.1231210231781006,0.20518989861011505
1774158172369081600,12.62908154296875,0.2485426962375641,-1.9667021036148071,0.345639705657959
1774158172389074700,12.64907470703125,0.2882576286792755,-1.6413536071777344,0.3691362142562866
1774158172409066500,12.66906640625,0.4709344804286957,-1.3369859457015991,0.276156485080719
1774158172429059600,12.6890595703125,0.46297377347946167,-1.2737632989883423,0.43463215231895447
1774158172449051600,12.7090517578125,0.30917543172836304,-1.1316466331481934,0.5382093787193298
1774158172469044500,12.72904443359375,-0.06851674616336823,-1.1788642406463623,0.4335186779499054
1774158172489036500,12.74903662109375,-0.6423193216323853,-1.4576457738876343,0.5367036461830139
1774158172509029600,12.769029541015625,-1.119796872138977,-1.475901484489441,0.6638525724411011
1774158172529021400,12.789021484375,-0.8481078743934631,-0.2710978090763092,0.2613690197467804
1774158172549014500,12.8090146484375,-0.2917863130569458,-0.023938888683915138,0.21188323199748993
1774158172569006300,12.82900634765625,-0.056166332215070724,-0.2513771057128906,0.24749554693698883
1774158172588999400,12.84899951171875,0.09587779641151428,-0.4317687153816223,0.4335319995880127
1774158172608991700,12.86899169921875,0.17562295496463776,-0.31542399525642395,0.42596250772476196
1774158172628984600,12.888984619140626,0.261512815952301,-0.05985614284873009,0.5555686950683594
1774158172648976600,12.9089765625,-0.2434384822845459,0.003573429537937045,0.31583651900291443
1774158172668969700,12.9289697265625,-0.848487377166748,1.6584668159484863,0.32585400342941284
1774158172688961500,12.94896142578125,-0.5805432796478271,0.5881535410881042,0.03425624221563339
1774158172708954600,12.96895458984375,0.018208298832178116,0.5747016072273254,0.049220010638237
1774158172728946400,12.988946533203125,0.2988809645175934,-0.5216863751411438,-0.5209896564483643
1774158172748939500,13.008939453125,0.2769184112548828,-1.7331244945526123,-0.466464102268219
1774158172768932600,13.0289326171875,0.1916373372077942,-2.026782989501953,-0.19415776431560516
1774158172788924400,13.04892431640625,0.24255672097206116,-1.1779382228851318,-0.37373390793800354
1774158172808917500,13.06891748046875,0.05234523117542267,-0.208253875374794,-0.4277670383453369
1774158172828909600,13.08890966796875,-0.05347094684839249,-0.20906586945056915,-0.2514628469944
1774158172848902400,13.10890234375,0.052564941346645355,0.09359093755483627,-0.22414761781692505
1774158172868894500,13.12889453125,0.047035153955221176,-0.04687882587313652,-0.1449768990278244
1774158172888887600,13.148887451171875,-0.10319749265909195,-0.12607137858867645,-0.45471450686454773
1774158172908879600,13.168879638671875,-0.3752298057079315,-0.18279218673706055,-0.4290064871311188
1774158172928872700,13.188872802734375,-0.281196266412735,-0.49545928835868835,0.5561740398406982
1774158172948864500,13.208864501953125,-0.17149879038333893,-0.44679906964302063,0.6097243428230286
1774158172968857600,13.228857666015625,-0.07941759377717972,-0.4155617952346802,0.37274879217147827
1774158172988849700,13.248849609375,0.06293661892414093,-1.0572125911712646,-0.06861474364995956
1774158173008842500,13.268842529296874,0.42981022596359253,-0.89451664686203,0.2772742211818695
1774158173028834600,13.28883447265625,0.3661196529865265,-0.3045859932899475,0.24150769412517548
1774158173048827400,13.308827392578126,0.27373647689819336,0.5177674889564514,0.38687261939048767
1774158173068819500,13.3288193359375,0.27228131890296936,0.5334436893463135,0.5162470936775208
1774158173088812500,13.3488125,0.3379543423652649,0.3778330385684967,0.25665390491485596
1774158173108804400,13.368804443359375,0.5045835375785828,0.18086299300193787,-0.38894030451774597
1774158173128797400,13.38879736328125,0.5935301780700684,0.48504337668418884,-0.5079910755157471
1774158173148789800,13.408789794921875,0.6315689086914062,0.7556208372116089,-0.4125087261199951
1774158173168782600,13.428782470703124,0.6075394749641418,0.5135530829429626,-0.3243066966533661
1774158173188774700,13.448774658203124,0.5544256567955017,0.2526317238807678,-0.27938637137413025
1774158173208767500,13.468767578125,0.6380795240402222,-0.2035057246685028,-0.25844326615333557
1774158173228759600,13.488759521484376,0.8228693604469299,-0.8924489617347717,-0.3762969374656677
1774158173248752600,13.508752685546876,1.0339890718460083,-1.0042554140090942,-0.6227304339408875
1774158173268744400,13.528744384765625,1.1593594551086426,-1.1505944728851318,-0.009408148936927319
1774158173288737500,13.548737548828125,0.741798460483551,-0.31267401576042175,0.6202587485313416
1774158173308729300,13.568729248046875,0.2773171067237854,1.4103829860687256,0.23150885105133057
1774158173328722400,13.588722412109375,-0.03961025923490524,1.892067313194275,-0.1148725226521492
1774158173348714500,13.608714599609375,-0.3000413179397583,1.2051541805267334,-0.18172213435173035
1774158173368707300,13.628707275390624,0.1362561136484146,0.8345769047737122,0.10833073407411575
1774158173388699600,13.64869970703125,0.05374285578727722,0.8870992064476013,0.2775658369064331
1774158173408692500,13.6686923828125,-0.3103967607021332,0.88570237159729,-0.06120903044939041
1774158173428684500,13.6886845703125,0.026435336098074913,1.3342242240905762,-0.35547715425491333
1774158173448677600,13.708677734375,0.3232478201389313,1.6046876907348633,-0.05883535370230675
1774158173468670700,13.728670654296875,0.337611585855484,1.6225389242172241,0.18930840492248535
1774158173488662500,13.74866259765625,-0.10994833707809448,1.7423232793807983,0.37369582056999207
1774158173508655600,13.768655517578125,-0.26907992362976074,1.9047188758850098,0.5063364505767822
1774158173528647400,13.7886474609375,-0.10124406218528748,1.974411129951477,0.5402541756629944
1774158173548640500,13.808640625,-0.19979406893253326,1.9318010807037354,0.32417061924934387
1774158173568632600,13.828632568359374,-0.24544091522693634,2.277775287628174,0.021619541570544243
1774158173588625400,13.84862548828125,-0.19089671969413757,3.0455925464630127,-0.5157656073570251
1774158173608617500,13.868617431640626,-0.16831497848033905,3.1306838989257812,-0.4393688440322876
1774158173628610600,13.888610595703126,-0.2139682173728943,2.6542043685913086,-0.019693810492753983
1774158173648602400,13.908602294921875,-0.16171778738498688,2.1884803771972656,0.32272425293922424
1774158173668595500,13.928595458984375,-0.1410689800977707,1.871134877204895,0.023999609053134918
1774158173688587500,13.94858740234375,-0.018221614882349968,1.4397737979888916,-0.41495218873023987
1774158173708580600,13.96858056640625,0.16512131690979004,1.0554251670837402,-0.5160343050956726
1774158173728572700,13.98857275390625,0.3591783940792084,1.0802327394485474,-0.31233978271484375
1774158173748565500,14.0085654296875,0.21167603135108948,1.1374081373214722,-0.36114034056663513
1774158173768557600,14.0285576171875,-0.016692694276571274,1.1292892694473267,-0.7254168391227722
1774158173788550700,14.048550537109374,0.023627297952771187,1.5772267580032349,-1.0016345977783203
1774158173808542500,14.06854248046875,0.4519948959350586,1.6601855754852295,-0.9540824890136719
1774158173828535600,14.08853564453125,0.5595919489860535,2.290661334991455,-0.8329331874847412
1774158173848527400,14.10852734375,0.4839392304420471,2.0909581184387207,-0.9590229392051697
1774158173868520400,14.1285205078125,0.25509700179100037,1.0609674453735352,-0.4245201349258423
1774158173888512300,14.14851220703125,0.18175621330738068,0.19139313697814941,-0.011999937705695629
1774158173908505300,14.16850537109375,0.25940120220184326,0.15671584010124207,0.05455485358834267
1774158173928497400,14.188497314453125,0.3499883711338043,0.6783854365348816,-0.02750006690621376
1774158173948490500,14.208490478515625,0.23406203091144562,1.0255769491195679,0.05049166828393936
1774158173968482600,14.228482666015625,-0.00452764006331563,1.08316171169281,0.3158586323261261
1774158173988475400,14.248475341796874,-0.16569308936595917,0.9469316601753235,0.5432955026626587
1774158174008467500,14.268467529296874,-0.28135523200035095,0.9468797445297241,0.7003027200698853
1774158174028460500,14.28846044921875,-0.3733203113079071,0.5575780272483826,0.7062380909919739
1774158174048452400,14.308452392578126,-0.4488222599029541,-0.09388814866542816,0.5067569613456726
1774158174068445400,14.328445556640625,-0.40705326199531555,-0.29080867767333984,0.38818421959877014
1774158174088437200,14.348437255859375,-0.35601189732551575,0.11365252733230591,0.2638918459415436
1774158174108430300,14.368430419921875,-0.39738836884498596,0.6515405178070068,0.08664674311876297
1774158174128422400,14.38842236328125,-0.27702096104621887,0.5045191049575806,-0.0049436260014772415
1774158174148415200,14.408415283203125,-0.33524084091186523,0.8444249629974365,0.19613541662693024
1774158174168407600,14.428407470703124,-0.3789787292480469,1.083543300628662,0.24042858183383942
1774158174188400400,14.448400390625,-0.4505749046802521,1.0017080307006836,-0.10663110762834549
1774158174208392400,14.468392333984376,-0.48913559317588806,0.7052151560783386,-0.25656813383102417
1774158174228385500,14.488385498046876,-0.48102468252182007,0.396038681268692,-0.07676002383232117
1774158174248377300,14.50837744140625,-0.39019304513931274,0.11573698371648788,0.05449706315994263
1774158174268370400,14.528370361328125,-0.401194304227829,-0.23656539618968964,0.05956000089645386
1774158174288362500,14.548362548828125,-0.38733601570129395,-0.3942943215370178,-0.07534322142601013
1774158174308355300,14.568355224609375,-0.37358558177948,-0.5680112242698669,-0.2575218081474304
1774158174328347400,14.588347412109375,-0.40236741304397583,-0.8133991360664368,-0.2345171719789505
1774158174348340500,14.608340576171875,-0.29808175563812256,-0.8001264929771423,-0.0730835348367691
1774158174368332300,14.628332275390624,-0.2131519615650177,-0.48294374346733093,-0.09745678305625916
1774158174388325400,14.648325439453124,0.10441774874925613,-0.11474549025297165,-0.21810783445835114
1774158174408317400,14.6683173828125,0.4229810833930969,-0.21847321093082428,-0.377361923456192
1774158174428310300,14.688310302734376,0.6097277998924255,-0.18464042246341705,-0.058821771293878555
1774158174448302600,14.708302490234376,0.7871334552764893,-0.7402064204216003,0.20852364599704742
1774158174468295400,14.72829541015625,0.6077120304107666,0.07297514379024506,0.11094089597463608
1774158174488287500,14.74828759765625,0.35983192920684814,1.7342115640640259,-0.2151261568069458
1774158174508280600,14.768280517578125,0.23030909895896912,1.734948754310608,-0.23189687728881836
1774158174528273400,14.7882734375,-0.002273540711030364,1.1825593709945679,0.10470803827047348
1774158174548265500,14.808265380859375,-0.086541548371315,0.8426095247268677,0.2503904104232788
1774158174568258300,14.82825830078125,-0.06264553964138031,1.155060052871704,0.09428922086954117
1774158174588250400,14.84825048828125,-0.03116271272301674,1.7514973878860474,0.011304586194455624
1774158174608243500,14.868243408203124,-0.12827248871326447,1.8175698518753052,-0.019147062674164772
1774158174628235300,14.8882353515625,-0.25402161478996277,1.2155684232711792,0.056226786226034164
1774158174648228400,14.908228271484376,-0.23238663375377655,0.6390137672424316,0.09288093447685242
1774158174668220400,14.928220458984375,-0.06360507756471634,0.5181326270103455,0.06354648619890213
1774158174688213200,14.948213134765625,0.07395731657743454,0.6482357978820801,0.11609011888504028
1774158174708205600,14.96820556640625,0.15228727459907532,0.8040258884429932,0.10424597561359406
1774158174728198400,14.988198486328125,0.002201369032263756,1.1086195707321167,-0.05860525742173195
1774158174748190500,15.0081904296875,0.18389339745044708,1.2801247835159302,0.1415291726589203
1774158174768183600,15.02818359375,0.3266260623931885,1.1533585786819458,0.16319771111011505
1774158174788175400,15.04817529296875,0.13118810951709747,0.7005530595779419,0.047983504831790924
1774158174808168400,15.06816845703125,0.000764593540225178,0.5078192949295044,0.07193198055028915
1774158174828160300,15.08816015625,-0.0062123560346663,-0.13071966171264648,0.013561614789068699
1774158174848153300,15.1081533203125,0.029416212812066078,0.1794954538345337,0.045210886746644974
1774158174868147200,15.128147216796876,0.09713933616876602,0.5977608561515808,-0.0443434976041317
1774158174888140300,15.148140380859376,0.14561818540096283,0.4559193253517151,-0.031038343906402588
1774158174908132000,15.168132080078125,0.1067565381526947,0.27080512046813965,0.0034173682797700167
1774158174928125200,15.188125244140625,0.09165188670158386,0.410569429397583,0.05913815647363663
1774158174948117200,15.2081171875,0.029279058799147606,0.3688257038593292,-0.06774495542049408
1774158174968110000,15.228110107421875,-0.10186697542667389,0.31096959114074707,-0.12453127652406693
1774158174988102100,15.24810205078125,-0.18434986472129822,0.2786928713321686,-0.41477668285369873
1774158175008095200,15.26809521484375,0.2108999788761139,-0.21000543236732483,-0.5465642809867859
1774158175028087000,15.288087158203124,0.6140549182891846,-0.2790745198726654,-0.4728620946407318
1774158175048080100,15.308080078125,0.6366771459579468,-0.01486656442284584,-0.4438634514808655
1774158175068072200,15.328072265625,0.27815279364585876,0.24960903823375702,-0.2746235728263855
1774158175088065000,15.34806494140625,0.09515181183815002,0.33779799938201904,-0.26349902153015137
1774158175108057300,15.368057373046875,0.13065707683563232,0.3604452610015869,-0.28477659821510315
1774158175128050200,15.38805029296875,0.24281291663646698,0.40328434109687805,-0.10407154262065887
1774158175148042200,15.408042236328125,0.3039734661579132,0.349226176738739,0.04862106591463089
1774158175168035300,15.428035400390625,0.21568141877651215,0.5098198652267456,0.07540128380060196
1774158175188027100,15.448027099609375,-0.13887612521648407,0.8602489829063416,0.01792094297707081
1774158175208020200,15.468020263671875,-0.31470733880996704,0.9869595170021057,-0.09061458706855774
1774158175228012000,15.488011962890624,-0.26264575123786926,0.8807148337364197,-0.061587464064359665
1774158175248005000,15.508005126953124,-0.16136358678340912,0.5040258765220642,0.07080679386854172
1774158175267997200,15.5279970703125,-0.10121796280145645,0.28214940428733826,0.19683636724948883
1774158175287990000,15.547989990234376,-0.14005164802074432,0.1647958755493164,0.30431514978408813
1774158175307982000,15.567982177734375,-0.23474299907684326,0.118454210460186,0.35110849142074585
1774158175327975000,15.587974853515625,-0.29324573278427124,0.21397647261619568,0.29516053199768066
1774158175347967200,15.60796728515625,-0.27370211482048035,0.3111530840396881,0.3710017800331116
1774158175367960300,15.627960205078125,-0.20748315751552582,0.19744569063186646,0.4343559741973877
1774158175387952000,15.6479521484375,-0.1699613481760025,0.10127229243516922,0.37085768580436707
1774158175407945200,15.6679453125,-0.16535674035549164,0.13526248931884766,0.25920891761779785
1774158175427937300,15.687937255859374,-0.1883227676153183,0.014238324016332626,0.22334574162960052
1774158175447930000,15.70793017578125,-0.17330627143383026,-0.19262857735157013,0.2311466634273529
1774158175467922200,15.727922119140626,-0.18031145632266998,-0.326587975025177,0.19300487637519836
1774158175487915000,15.7479150390625,-0.15417759120464325,-0.15948845446109772,0.11228819191455841
1774158175507907000,15.767906982421875,-0.045277200639247894,-0.18705964088439941,0.01128328125923872
1774158175527900200,15.787900146484375,0.009469668380916119,-0.5103194713592529,-0.028540298342704773
1774158175547892000,15.80789208984375,-0.03323625028133392,-0.7004518508911133,-0.27023786306381226
1774158175567885000,15.827885009765625,0.09570415318012238,-0.5242816209793091,-0.41650453209877014
1774158175587877000,15.847877197265625,0.3362714946269989,-0.4930632412433624,-0.4670542776584625
1774158175607870200,15.8678701171875,0.547153651714325,0.020068250596523285,-0.35153061151504517
1774158175627862300,15.8878623046875,0.5862536430358887,0.3337675929069519,-0.3888966143131256
1774158175647855000,15.907855224609374,0.4387909471988678,0.8753573298454285,-0.2657054364681244
1774158175667847200,15.92784716796875,0.1661948263645172,1.1756750345230103,0.026676883921027184
1774158175687840300,15.94784033203125,-0.08164506405591965,0.7817386984825134,0.09288519620895386
1774158175707832000,15.96783203125,-0.18109256029129028,-0.41827526688575745,-0.013696903362870216
1774158175727825200,15.9878251953125,-0.2020990401506424,-1.2676713466644287,0.10324808955192566
1774158175747817000,16.00781689453125,-0.1318855881690979,-1.7566546201705933,0.5060206055641174
1774158175767810000,16.02781005859375,-0.116362564265728,-1.47581148147583,0.5496077537536621
1774158175787802000,16.047802001953126,-0.1341514140367508,-0.7415305972099304,0.33898258209228516
1774158175807795000,16.067794921875,-0.10198069363832474,-0.7579241991043091,0.17771726846694946
1774158175827787300,16.087787353515626,0.009710151702165604,-1.024460792541504,0.21032287180423737
1774158175847780400,16.1077802734375,0.08757059276103973,-1.1633994579315186,0.32398340106010437
1774158175867770400,16.127770263671874,0.12944240868091583,-1.0761154890060425,0.35239025950431824
1774158175887763500,16.147763427734375,0.1463201940059662,-1.0192683935165405,0.3787584900856018
1774158175907755500,16.167755615234373,0.14035098254680634,-0.7846026420593262,0.40721917152404785
1774158175927748400,16.187748291015627,0.14953356981277466,-0.5516448020935059,0.44401127099990845
1774158175947740700,16.20774072265625,0.2371252030134201,-0.4661138951778412,0.45312434434890747
1774158175967733500,16.2277333984375,0.2617538571357727,-0.4767862558364868,0.44631996750831604
1774158175987725600,16.2477255859375,0.20766158401966095,-0.547001838684082,0.36247432231903076
1774158176007718700,16.26771875,0.1293630450963974,-0.45065584778785706,0.2488822489976883
1774158176027710500,16.28771044921875,0.15929511189460754,-0.26545989513397217,0.16628219187259674
1774158176047703600,16.30770361328125,0.2079302966594696,-0.25115418434143066,0.1526063233613968
1774158176067695600,16.327695556640624,0.2411457747220993,-0.22304852306842804,0.15941736102104187
1774158176087688400,16.3476884765625,0.33557507395744324,-0.07255755364894867,0.1235581561923027
1774158176107680500,16.367680419921875,0.4141838550567627,0.019157981500029564,0.05811417102813721
1774158176127673600,16.387673583984373,0.35983967781066895,-0.27923110127449036,0.15263721346855164
1774158176147665400,16.40766552734375,0.22745072841644287,-0.6828808188438416,0.13010287284851074
1774158176167658500,16.427658447265625,0.21158069372177124,-0.8578092455863953,-0.05898502469062805
1774158176187650600,16.447650634765626,0.30789658427238464,-0.5596992373466492,-0.16640521585941315
1774158176207643400,16.467643310546876,0.5712792277336121,-0.45942431688308716,-0.13826173543930054
1774158176227635700,16.4876357421875,0.7450853586196899,-0.30420196056365967,-0.23878514766693115
1774158176247628500,16.507628662109376,0.6026624441146851,0.19442594051361084,-0.43475863337516785
1774158176267620600,16.52762060546875,0.22603446245193481,0.44967368245124817,-0.2801445722579956
1774158176287613700,16.54761376953125,-0.1436098963022232,0.04216849058866501,-0.15163293480873108
1774158176307605500,16.56760546875,-0.18390725553035736,-0.6852292418479919,0.043838828802108765
1774158176327598600,16.5875986328125,-0.18602658808231354,-0.9929977059364319,0.5025312900543213
1774158176347590400,16.60759033203125,-0.12868793308734894,-0.3499486744403839,0.29686203598976135
1774158176367583500,16.62758349609375,-0.07098522782325745,-0.05800231546163559,-0.06222502514719963
1774158176387575600,16.647575439453124,-0.08815249800682068,-0.22259259223937988,0.04158739000558853
1774158176407568400,16.667568359375,-0.24088984727859497,-0.24684174358844757,0.08362539112567902
1774158176427560400,16.687560546875,-0.1909973919391632,0.1970994919538498,-0.07494108378887177
1774158176447553500,16.707553466796874,-0.14949175715446472,0.2732243537902832,-0.10530564934015274
1774158176467545600,16.727545654296875,-0.2989238500595093,-0.37275201082229614,0.07487157732248306
1774158176487538700,16.74753857421875,-0.23965759575366974,-0.6361692547798157,0.26080629229545593
1774158176507530500,16.767530517578123,-0.3632218837738037,-0.410160630941391,0.19057394564151764
1774158176527523600,16.787523681640625,-0.36946699023246765,-0.1615113914012909,-0.044616203755140305
1774158176547515600,16.807515625,-0.2855566442012787,-0.35328802466392517,0.140616774559021
1774158176567508500,16.827508544921876,-0.2193046510219574,-0.6913052201271057,0.2990402281284332
1774158176587500500,16.84750048828125,-0.028793564066290855,-1.1026972532272339,0.35208773612976074
1774158176607493600,16.86749365234375,0.08299634605646133,-1.2636946439743042,0.2648814618587494
1774158176627485400,16.8874853515625,0.14765816926956177,-1.0073648691177368,0.10163687914609909
1774158176647478500,16.907478515625,0.23996226489543915,-1.2290802001953125,0.14170627295970917
1774158176667470300,16.92747021484375,1.494124412536621,-1.208944320678711,0.22714926302433014
1774158176687463400,16.94746337890625,0.3403831422328949,-0.32366088032722473,-0.06244420260190964
1774158176707455700,16.967455810546873,-0.14422695338726044,-0.6035354137420654,0.013581056147813797
1774158176727448600,16.987448486328127,-0.0796535462141037,-0.4724825918674469,-0.0032690302468836308
1774158176747440600,17.007440673828125,-0.0415748730301857,-0.33162134885787964,-0.1159934476017952
1774158176767433700,17.027433837890626,-0.03327007219195366,-0.3764522075653076,-0.1408095806837082
1774158176787425500,17.047425537109376,0.05945107713341713,-0.3800085783004761,-0.2533068358898163
1774158176807418600,17.067418701171874,0.19669708609580994,-0.11866619437932968,-0.3887706398963928
1774158176827410400,17.087410400390624,0.30423659086227417,-0.13299666345119476,-0.4887044429779053
1774158176847403500,17.107403564453126,0.2663717567920685,0.02401185967028141,-0.48241671919822693
1774158176867395800,17.127395751953124,0.28020209074020386,0.26758643984794617,-0.2487376481294632
1774158176887389000,17.147388916015625,0.38103896379470825,0.32793232798576355,0.010126669891178608
1774158176907381000,17.167381103515623,0.24573813378810883,0.35908252000808716,0.08849684149026871
1774158176927373800,17.187373779296873,-0.14701901376247406,0.41313591599464417,0.010272078216075897
1774158176947366000,17.207365966796875,-0.2888701558113098,0.40816912055015564,-0.037626203149557114
1774158176967358700,17.227358642578125,-0.29954516887664795,0.13345232605934143,-0.058460112661123276
1774158176987351000,17.24735107421875,-0.2040034681558609,-0.1673186868429184,-0.008945824578404427
1774158177007344000,17.26734423828125,-0.16574156284332275,-0.5092267394065857,0.03278191387653351
1774158177027336000,17.2873359375,-0.16324670612812042,-0.7359046339988708,0.08246292173862457
1774158177047329000,17.3073291015625,-0.025416942313313484,-0.8713015913963318,0.19397853314876556
1774158177067321000,17.327321044921874,-0.0496213473379612,-1.138390064239502,0.38105309009552
1774158177087314000,17.34731396484375,-0.21698877215385437,-1.225141167640686,0.5031830072402954
1774158177107306000,17.367305908203125,-0.315234899520874,-0.7902259230613708,0.4128855764865875
1774158177127298800,17.387298828125,-0.1187940314412117,0.148518905043602,0.04234159737825394
1774158177147291000,17.407290771484377,0.13689632713794708,-0.025595108047127724,-0.14090918004512787
1774158177167284000,17.427283935546875,0.010393785312771797,-1.3014482259750366,0.2632444202899933
1774158177187275800,17.44727587890625,0.03604535385966301,-1.021162748336792,0.39558887481689453
1774158177207268900,17.467268798828126,0.12280288338661194,-0.566281259059906,0.06266923993825912
1774158177227261000,17.487260986328124,0.12244788557291031,-0.20023615658283234,0.013963219709694386
1774158177247254000,17.50725390625,0.1155518963932991,-0.13511015474796295,0.04849003627896309
1774158177267246000,17.52724609375,0.12781468033790588,-0.21721699833869934,0.012673184275627136
1774158177287239000,17.547239013671874,0.06513772159814835,-0.25638651847839355,0.0006205165409483016
1774158177307231000,17.56723095703125,0.12757766246795654,-0.2716621458530426,-0.06931089609861374
1774158177327224000,17.58722412109375,0.23854359984397888,-0.40245530009269714,-0.010566357523202896
1774158177347216000,17.6072158203125,0.1997985988855362,-0.3397572934627533,0.05452875420451164
1774158177367209000,17.627208984375,0.2271665781736374,-0.3334019184112549,-0.24835895001888275
1774158177387200800,17.64720068359375,0.31432411074638367,-0.7597886919975281,-0.4095954895019531
1774158177407193900,17.66719384765625,0.4974614381790161,-0.7723097801208496,-0.40034979581832886
1774158177427186000,17.68718603515625,0.47018134593963623,-0.6380715370178223,-0.3944157660007477
1774158177447178800,17.7071787109375,0.2715771794319153,-0.16447336971759796,-0.29037511348724365
1774158177467171000,17.727171142578126,0.0680975615978241,0.07000412046909332,-0.42817452549934387
1774158177487164000,17.747163818359375,-0.05612372234463692,-0.12382473796606064,-0.2712927460670471
1774158177507156000,17.767156005859373,-0.06425461918115616,0.2734762728214264,-0.18680183589458466
1774158177527149000,17.787149169921875,-0.03158455714583397,0.8263788819313049,-0.22268687188625336
1774158177547140900,17.807140869140625,-0.08090949803590775,1.0192420482635498,-0.11431246250867844
1774158177567134000,17.827134033203127,-0.14769038558006287,0.8210922479629517,0.031808264553546906
1774158177587126000,17.8471259765625,-0.2069808840751648,0.49688300490379333,0.11752635985612869
1774158177607118800,17.867118896484374,-0.33082371950149536,0.29277434945106506,0.061954181641340256
1774158177627111000,17.88711083984375,-0.29111653566360474,0.16727101802825928,0.02852112427353859
1774158177647104000,17.90710400390625,-0.22863183915615082,0.12892070412635803,0.09004919975996017
1774158177667095800,17.927095703125,-0.18744659423828125,0.10565771907567978,0.0828903540968895
1774158177687089000,17.9470888671875,-0.1755172312259674,0.24241343140602112,0.01727060042321682
1774158177707081000,17.9670810546875,-0.16326375305652618,0.2778063118457794,-0.05577058717608452
1774158177727073800,17.98707373046875,-0.14005617797374725,0.16061897575855255,-0.07671288400888443
1774158177747066000,18.007066162109375,-0.11469408869743347,-0.008775115944445133,-0.03441682830452919
1774158177767059000,18.027058837890625,-0.13291224837303162,-0.17019303143024445,0.06192328780889511
1774158177787051000,18.047051025390626,-0.08399955928325653,-0.25275397300720215,0.1190108060836792
1774158177807044000,18.067044189453124,-0.03249615803360939,-0.27045491337776184,0.09748820960521698
1774158177827036000,18.087035888671874,-0.007727161981165409,-0.26334348320961,0.009692042134702206
1774158177847029000,18.107029052734376,-0.017179252579808235,-0.31054162979125977,-0.03171052411198616
1774158177867021000,18.12702099609375,-0.04547081142663956,-0.2919522225856781,0.010435064323246479
1774158177887014000,18.147013916015624,-0.035165708512067795,-0.22871600091457367,-0.020435767248272896
1774158177907006000,18.167005859375,-0.0023196132387965918,-0.21511177718639374,-0.02370266616344452
1774158177926999000,18.1869990234375,0.05673598498106003,-0.1664062887430191,-0.019031481817364693
1774158177946990800,18.206990966796877,0.13731764256954193,-0.3079812526702881,0.017679661512374878
1774158177966984000,18.22698388671875,0.25681209564208984,-0.3907959759235382,0.16959862411022186
1774158177986976300,18.246976318359376,0.36470580101013184,-0.5554736256599426,0.009306682273745537
1774158178006969000,18.266968994140626,0.34979796409606934,-0.3997468650341034,0.14120373129844666
1774158178026961200,18.286961181640624,0.2376980483531952,-0.18846072256565094,0.3064640462398529
1774158178046954000,18.3069541015625,0.0823526605963707,-0.4476057291030884,0.2943789064884186
1774158178066946000,18.326946044921876,-0.09526553004980087,-0.6004661321640015,0.1449795663356781
1774158178086939100,18.346939208984374,-0.2430696338415146,-0.4557579457759857,0.13341690599918365
1774158178106931000,18.366930908203123,-0.327597051858902,-0.2802976965904236,0.31663042306900024
1774158178126924000,18.386924072265625,-0.2188071757555008,-0.3515969216823578,0.3140604496002197
1774158178146915800,18.406915771484375,-0.06434809416532516,-0.601170003414154,0.27267441153526306
1774158178166909000,18.426908935546876,0.10708224773406982,-0.48558932542800903,0.14986112713813782
1774158178186901000,18.44690087890625,0.11282321810722351,-0.4806300103664398,0.1357402503490448
1774158178206893800,18.466893798828124,0.10720794647932053,-0.5106750130653381,0.10358471423387527
1774158178226886100,18.48688623046875,0.0969955250620842,-0.4559291899204254,0.13852591812610626
1774158178246878200,18.506878173828124,0.09765438735485077,-0.36203595995903015,0.09012110531330109
1774158178266871000,18.52687109375,0.09019247442483902,-0.2806846499443054,0.06927361339330673
1774158178286863000,18.546863037109375,0.05971419811248779,-0.20684638619422913,0.1193399727344513
1774158178306856000,18.56685595703125,0.010451842099428177,-0.17751912772655487,0.14272332191467285
1774158178326848000,18.586847900390627,-0.007811051327735186,0.02310159057378769,0.07601061463356018
1774158178346841000,18.606841064453125,-0.0368480309844017,0.14481523633003235,0.07781809568405151
1774158178366833000,18.6268330078125,-0.05582677945494652,0.05115852504968643,0.0981002002954483
1774158178386826000,18.646825927734376,-0.020265590399503708,-0.03656440228223801,0.06375527381896973
1774158178406817800,18.66681787109375,0.04439356178045273,0.12805597484111786,-0.01366174966096878
1774158178426811000,18.686810791015624,0.1710662841796875,-0.019520437344908714,-0.04580850154161453
1774158178446803200,18.70680322265625,0.2988293170928955,-0.028775455430150032,0.0022386531345546246
1774158178466796000,18.726796142578124,0.3257179260253906,0.05126425251364708,0.09577739238739014
1774158178486788000,18.7467880859375,0.2651371359825134,0.019305521622300148,0.07292906939983368
1774158178506781200,18.76678125,0.29484841227531433,-0.5142212510108948,-0.05928942188620567
1774158178526773000,18.78677294921875,0.40755897760391235,-0.42023321986198425,-0.07924981415271759
1774158178546766000,18.80676611328125,0.3917035758495331,-0.34840404987335205,-0.13471174240112305
1774158178566758000,18.8267578125,0.3360171616077423,-0.0416310653090477,-0.1758890002965927
1774158178586751000,18.8467509765625,0.1909334659576416,0.16421078145503998,-0.2812548279762268
1774158178606743000,18.866742919921876,-0.03743791952729225,-0.04457066208124161,-0.1621452271938324
1774158178626735900,18.88673583984375,-0.15537360310554504,0.3256686329841614,-0.07372908294200897
1774158178646728000,18.90672802734375,-0.21901224553585052,0.33981776237487793,-0.027095800265669823
1774158178666721000,18.926720947265625,-0.1492142528295517,0.2768489122390747,-0.02148425206542015
1774158178686713000,18.946713134765623,-0.11629198491573334,0.30502381920814514,-0.0000828243064461276
1774158178706706000,18.966705810546873,-0.1351194679737091,0.19027380645275116,0.10258762538433075
1774158178726698000,18.986697998046875,-0.24321265518665314,0.22936128079891205,0.06618195027112961
1774158178746691000,19.006691162109377,-0.2523592710494995,0.24106746912002563,-0.055697884410619736
1774158178766683100,19.02668310546875,-0.2862192392349243,0.2113223671913147,-0.030587736517190933
1774158178786676000,19.046676025390624,-0.289678692817688,0.29574909806251526,-0.1272338479757309
1774158178806668000,19.06666796875,-0.32638344168663025,0.13170689344406128,-0.0996999591588974
1774158178826661000,19.0866611328125,-0.3096468150615692,-0.22278034687042236,-0.020252540707588196
1774158178846653000,19.10665283203125,-0.2731175422668457,-0.49500414729118347,-0.04663114994764328
1774158178866645500,19.1266455078125,-0.12821443378925323,-0.4941125214099884,-0.045818887650966644
1774158178886637600,19.146637451171873,-0.016230635344982147,-0.3631174862384796,0.055747419595718384
1774158178906630400,19.16663037109375,0.011442537419497967,-0.22581635415554047,0.11375799030065536
1774158178926622700,19.186622802734377,0.1072034165263176,-0.08381660282611847,0.13714267313480377
1774158178946615600,19.206615478515626,0.12762826681137085,-0.14152704179286957,0.10471203178167343
1774158178966607600,19.226607666015624,0.19607922434806824,-0.1681666374206543,0.028381306678056717
1774158178986600700,19.2466005859375,0.22542034089565277,-0.17755773663520813,-0.054730355739593506
1774158179006592500,19.266592529296876,0.27644971013069153,-0.163538858294487,-0.07584762573242188
1774158179026585600,19.286585693359374,0.34039753675460815,-0.08923613280057907,0.004194478504359722
1774158179046577400,19.306577392578124,0.45565807819366455,-0.14324423670768738,0.028923260048031807
1774158179066570500,19.326570556640625,0.47824352979660034,-0.5274521112442017,-0.260426789522171
1774158179086562600,19.3465625,0.4610408544540405,-0.9870527386665344,-0.6747637987136841
1774158179106555400,19.366555419921873,0.5610758662223816,-0.5960497856140137,-0.8177952170372009
1774158179126547500,19.38654736328125,0.6378166675567627,-0.23973563313484192,-0.48008033633232117
1774158179146540500,19.40654052734375,0.4379824101924896,-0.2805224657058716,-0.34370383620262146
1774158179166532600,19.42653271484375,0.15095782279968262,-0.05662892386317253,-0.09882964193820953
1774158179186525700,19.446525634765624,-0.08049910515546799,-0.2568072974681854,0.1094127744436264
1774158179206517500,19.466517578125,-0.10832647234201431,-0.6817769408226013,0.4379320740699768
1774158179226510600,19.486510498046876,-0.009075254201889038,-1.10110342502594,0.6011912822723389
1774158179246502700,19.506502685546874,0.1183181181550026,-1.0762696266174316,0.3580992817878723
1774158179266495500,19.52649560546875,0.13344646990299225,-0.7826151251792908,0.2404823750257492
1774158179286487600,19.546487548828125,0.2175120860338211,-0.6917028427124023,0.3060310184955597
1774158179306480600,19.566480712890623,0.4368654787540436,-0.46746546030044556,0.18937897682189941
1774158179326472400,19.586472412109377,0.5365515947341919,-0.1248849406838417,0.08010069280862808
1774158179346465500,19.606465576171875,0.5670674443244934,0.059717390686273575,0.13096441328525543
1774158179366457300,19.626457275390624,0.4638097286224365,-0.016216786578297615,0.21726679801940918
1774158179386450400,19.646450439453126,0.2648194134235382,-0.019208848476409912,0.19722439348697662
1774158179406442800,19.66644287109375,0.05102776363492012,0.060383982956409454,0.17813724279403687
1774158179426435600,19.686435546875,-0.03921344876289368,0.0827699825167656,0.1876993328332901
1774158179446427600,19.706427734375,-0.011410313658416271,0.18219110369682312,0.2032892107963562
1774158179466419500,19.72641943359375,-0.017659686505794525,0.17921556532382965,0.14601287245750427
1774158179486412500,19.74641259765625,-0.05283604934811592,0.032588835805654526,0.03027002140879631
1774158179506404600,19.766404541015625,-0.07645030319690704,0.0016764599131420255,-0.14271427690982819
1774158179526397400,19.7863974609375,-0.04723462462425232,0.01968502067029476,-0.23347346484661102
1774158179546389500,19.806389404296876,-0.018209896981716156,0.05171246454119682,-0.1824427843093872
1774158179566382600,19.826382568359374,0.0784095898270607,-0.011642009019851685,-0.12307053059339523
1774158179586374400,19.84637451171875,0.2983502149581909,0.22537639737129211,-0.236090287566185
1774158179606367500,19.866367431640626,0.23881150782108307,0.544458270072937,-0.41941696405410767
1774158179626359600,19.886359619140624,0.14623896777629852,0.11054888367652893,-0.7227334380149841
1774158179646352600,19.9063525390625,0.013848437927663326,0.23112642765045166,-0.5230997204780579
1774158179666344700,19.9263447265625,-0.14314571022987366,0.5525023341178894,-0.604168176651001
1774158179686337500,19.946337646484373,-0.3191034197807312,0.8288832902908325,-0.23239170014858246
1774158179706329600,19.96632958984375,-0.5124808549880981,0.7708418369293213,0.21986205875873566
1774158179726322700,19.98632275390625,-0.4190838038921356,1.0051223039627075,0.1816134750843048
1774158179746314500,20.006314453125,-0.10108214616775513,1.2791173458099365,-0.2211238592863083
1774158179766307600,20.0263076171875,-0.1096322238445282,1.564741611480713,-0.6003574728965759
1774158179786299400,20.04629931640625,-0.29774805903434753,1.6980514526367188,-0.5145860910415649
1774158179806292500,20.06629248046875,-0.3172333538532257,1.7114593982696533,-0.18680264055728912
1774158179826284500,20.086284423828126,-0.35946470499038696,1.5297473669052124,0.0204570721834898
1774158179846277400,20.10627734375,-0.5229297876358032,0.8787661790847778,-0.019232284277677536
1774158179866269700,20.126269775390625,-0.6920650005340576,0.8938990831375122,-0.1930171251296997
1774158179886262500,20.146262451171875,-0.797973096370697,1.250629186630249,-0.32184886932373047
1774158179906254600,20.166254638671877,-0.8699753880500793,1.4808768033981323,-0.37517282366752625
1774158179926247700,20.18624755859375,-0.8615632057189941,1.475154995918274,-0.3863655626773834
1774158179946239500,20.206239501953124,-0.8346517086029053,1.5379565954208374,-0.4345783591270447
1774158179966232600,20.226232666015626,-0.9189261198043823,1.5716184377670288,-0.45857930183410645
1774158179986224400,20.246224365234376,-0.9169484376907349,1.6792056560516357,-0.16057290136814117
1774158180006217500,20.266217529296874,-0.988370954990387,2.065647840499878,0.1878545880317688
1774158180026209500,20.28620947265625,-1.210191249847412,2.0829272270202637,0.36479446291923523
1774158180046202400,20.306202392578125,-1.2932499647140503,1.5107731819152832,0.5452694296836853
1774158180066194400,20.3261943359375,-1.1171367168426514,0.5219247341156006,0.4908147156238556
1774158180086187500,20.3461875,-0.7840085029602051,-0.9049051403999329,0.16563503444194794
1774158180106179600,20.3661796875,-0.417853981256485,-2.3044729232788086,-0.3932602107524872
1774158180126172400,20.38617236328125,-0.21603162586688995,-2.2692275047302246,-0.4891931414604187
1774158180146164500,20.40616455078125,-0.28998467326164246,-0.7361651062965393,0.06006520241498947
1774158180166157600,20.426157470703124,-0.4259542226791382,0.4821522533893585,0.6892348527908325
1774158180186149600,20.446149658203126,-0.5846874117851257,0.775047779083252,0.867462694644928
1774158180206142500,20.466142578125,-0.6082050204277039,-0.3569067120552063,0.393235981464386
1774158180226134500,20.486134521484374,-0.339181512594223,-1.102752447128296,-0.21670328080654144
1774158180246127600,20.506127685546875,0.07132211327552795,-0.2684181332588196,-0.13319267332553864
1774158180266119400,20.526119384765625,0.3143318295478821,-0.11455108225345612,-0.18155381083488464
1774158180286112500,20.546112548828123,0.3289022445678711,-0.426304429769516,-0.2911394238471985
1774158180306104300,20.566104248046877,0.2899330258369446,-0.6093272566795349,-0.2820596396923065
1774158180326097400,20.586097412109375,0.3333430886268616,-0.53640216588974,-0.12734836339950562
1774158180346089700,20.60608984375,0.46903538703918457,-0.3335944712162018,0.055137552320957184
1774158180366081500,20.62608154296875,0.3897682726383209,-0.15710040926933289,0.13302382826805115
1774158180386074600,20.64607470703125,0.08368317782878876,0.310634583234787,0.19875650107860565
1774158180406066400,20.66606640625,-0.03453747183084488,1.1313896179199219,0.3842978775501251
1774158180426059500,20.6860595703125,-0.14792793989181519,1.640278935432434,0.5177770853042603
1774158180446051600,20.706051513671873,-0.26865941286087036,1.9132177829742432,0.5767296552658081
1774158180466044400,20.72604443359375,-0.20897185802459717,2.0422980785369873,0.5654466152191162
1774158180486036500,20.746036376953125,0.08247650414705276,1.6152093410491943,0.2853071093559265
1774158180506029600,20.766029541015627,0.3160812556743622,0.5642580389976501,-0.25453799962997437
1774158180526021400,20.786021484375,0.25243279337882996,0.6486797332763672,-0.13450215756893158
1774158180546014500,20.806014404296874,0.253030925989151,1.0769258737564087,0.1203242838382721
1774158180566006500,20.826006591796876,0.2227609008550644,1.0829968452453613,0.032574187964200974
1774158180585999600,20.84599951171875,0.18615682423114777,1.0214385986328125,-0.10114818811416626
1774158180605991700,20.86599169921875,0.1950104981660843,0.841385543346405,-0.07322787493467331
1774158180625984500,20.885984619140626,0.166467547416687,0.8739525079727173,0.10286406427621841
1774158180645976600,20.9059765625,0.21557410061359406,0.6945353746414185,0.07766976207494736
1774158180665969700,20.9259697265625,0.38402143120765686,0.2547007203102112,-0.23825624585151672
1774158180685961500,20.94596142578125,0.33908912539482117,0.5878408551216125,-0.17155231535434723
1774158180705954600,20.96595458984375,0.17933008074760437,1.107914686203003,0.15666550397872925
1774158180725946400,20.9859462890625,0.26860857009887695,0.7910451292991638,0.05355563759803772
1774158180745939500,21.005939453125,0.41304802894592285,0.5089585781097412,-0.271711140871048
1774158180765931500,21.025931640625,0.42681682109832764,1.2252609729766846,-0.07741808891296387
1774158180785924400,21.04592431640625,0.27176305651664734,1.627710223197937,-0.02544330805540085
1774158180805916700,21.065916748046874,0.032591499388217926,1.3961073160171509,-0.3797404170036316
1774158180825909500,21.085909423828124,-0.058284077793359756,1.4554399251937866,-0.6120271682739258
1774158180845901600,21.105901611328125,-0.11593671888113022,1.8505712747573853,-0.559562623500824
1774158180865895200,21.125895263671875,-0.2505075931549072,2.2737231254577637,-0.4284520149230957
1774158180885887200,21.14588720703125,-0.3207268714904785,2.4240076541900635,-0.3318708837032318
1774158180905880300,21.16588037109375,-0.27801936864852905,2.26768159866333,-0.3073580861091614
1774158180925872000,21.1858720703125,-0.25855910778045654,1.8571891784667969,-0.31419333815574646
1774158180945865200,21.205865234375,-0.18287047743797302,1.4181479215621948,-0.24935470521450043
1774158180965857300,21.225857177734376,-0.14620168507099152,1.3358311653137207,-0.08018937706947327
1774158180985850000,21.24585009765625,-0.2775445282459259,1.4698734283447266,0.09929808974266052
1774158181005842200,21.26584228515625,-0.39139118790626526,1.5532047748565674,0.19438493251800537
1774158181025835300,21.285835205078126,-0.4288618862628937,1.4637638330459595,0.16688565909862518
1774158181045827000,21.3058271484375,-0.42421677708625793,1.3161669969558716,0.13119050860404968
1774158181065820200,21.325820068359373,-0.3971524238586426,1.1291459798812866,0.11939749866724014
1774158181085812000,21.34581201171875,-0.3810275197029114,0.8841548562049866,0.0711282417178154
1774158181105804300,21.36580419921875,-0.3328858017921448,0.7318180203437805,-0.021893315017223358
1774158181125797400,21.38579736328125,-0.22790347039699554,0.6215932369232178,-0.08622836321592331
1774158181145789200,21.4057890625,-0.17530657351016998,0.571147620677948,-0.05837009847164154
1774158181165782300,21.4257822265625,-0.23586419224739075,0.5557721257209778,-0.013699566945433617
1774158181185774000,21.445774169921876,-0.32589155435562134,0.4712601900100708,0.013791978359222412
1774158181205767200,21.46576708984375,-0.4127183258533478,0.29002144932746887,0.07943916320800781
1774158181225759200,21.48575927734375,-0.4488595426082611,0.0651094913482666,0.12175386399030685
1774158181245752000,21.505751953125,-0.42125242948532104,-0.1297082006931305,0.1249653697013855
1774158181265744100,21.525744140625,-0.4629300832748413,-0.06380721181631088,0.2680668830871582
1774158181285737200,21.5457373046875,-0.49187013506889343,0.4441028833389282,0.6197303533554077
1774158181305729000,21.56572900390625,-0.21140864491462708,0.2901996076107025,0.5640551447868347
1774158181325722000,21.58572216796875,0.10495997220277786,-1.5063323974609375,-0.3811146020889282
1774158181345714200,21.605714111328126,0.1379421502351761,-0.4431374967098236,-0.4291020929813385
1774158181365707300,21.625707275390624,0.35869449377059937,0.5745956301689148,-0.46207815408706665
1774158181385699300,21.64569921875,0.6672694087028503,0.2681150734424591,-0.9232340455055237
1774158181405692200,21.665692138671876,0.9013684391975403,-0.7460430264472961,-1.4593020677566528
1774158181425684200,21.685684326171874,0.8744063377380371,-1.2248716354370117,-1.4565703868865967
1774158181445677300,21.70567724609375,0.5726690888404846,-0.7859252095222473,-0.8373361825942993
1774158181465669000,21.725669189453125,0.23765623569488525,0.13785479962825775,-0.23634515702724457
1774158181485662200,21.745662109375,0.10031808167695999,0.815753161907196,0.06548552960157394
1774158181505654000,21.765654052734376,-0.038850992918014526,0.8115208148956299,0.21031728386878967
1774158181525647000,21.785647216796875,-0.08712345361709595,0.5441535711288452,0.3683399558067322
1774158181545639200,21.80563916015625,-0.12314989417791367,0.6721981167793274,0.6551663875579834
1774158181565632000,21.825632080078126,-0.24377857148647308,0.9868580102920532,0.9596772789955139
1774158181585624300,21.845624267578124,-0.35756319761276245,1.2635890245437622,1.1701711416244507
1774158181605617400,21.865617431640626,-0.3081170916557312,1.385993480682373,1.2551254034042358
1774158181625609200,21.885609130859375,-0.129167839884758,1.2631759643554688,1.1363897323608398
1774158181645602300,21.905602294921874,0.05905160307884216,0.778185248374939,0.8464415669441223
1774158181665594000,21.925593994140623,0.2562198042869568,0.30369970202445984,0.6325238943099976
1774158181685587200,21.945587158203125,0.2552458643913269,-0.5405633449554443,0.22562193870544434
1774158181705579300,21.965579345703127,0.17425622045993805,-0.43308883905410767,-0.0767941102385521
1774158181725572000,21.985572021484376,0.2077215015888214,0.46745800971984863,-0.09853829443454742
1774158181745564200,22.005564208984374,0.3205290138721466,0.8176756501197815,-0.2963416576385498
1774158181765557200,22.02555712890625,0.585338294506073,1.0323376655578613,-0.5734755396842957
1774158181785549000,22.045549072265626,0.8102095127105713,1.4213767051696777,-0.7130054235458374
1774158181805541400,22.065541259765624,0.7870548963546753,1.487841010093689,-0.6861205697059631
1774158181825534200,22.0855341796875,0.7118621468544006,0.6930516958236694,-0.5021912455558777
1774158181845526300,22.1055263671875,0.8371018171310425,-0.7864407896995544,-0.37486201524734497
1774158181865518600,22.1255185546875,0.9755231142044067,-0.8166434168815613,-0.27397987246513367
1774158181885510700,22.1455107421875,0.860451340675354,0.1727009415626526,-0.23321141302585602
1774158181905503500,22.16550341796875,0.7680407166481018,-0.1397043764591217,-0.4849320650100708
1774158181925495600,22.18549560546875,0.42361465096473694,-0.8477742075920105,-0.8554635047912598
1774158181945488400,22.20548828125,-0.0348578505218029,0.21703937649726868,-0.7076482176780701
1774158181965480400,22.22548046875,-0.24367524683475494,1.3887921571731567,-0.6050949692726135
1774158181985473500,22.2454736328125,-0.1594008356332779,1.7899107933044434,-0.4743465483188629
1774158182005465600,22.265465576171874,0.01212537195533514,1.388337254524231,-0.1406726986169815
1774158182025458700,22.285458740234375,0.05503502115607262,0.2518242597579956,0.29284200072288513
1774158182045450800,22.30545068359375,0.06565171480178833,-0.5230836868286133,0.6194943785667419
1774158182065443600,22.325443603515627,0.03311561048030853,-0.27146291732788086,0.826296865940094
1774158182085435600,22.345435546875,-0.03820917010307312,0.06018797308206558,0.9483926892280579
1774158182105428500,22.365428466796875,-0.22867392003536224,-0.1741694062948227,0.8011781573295593
1774158182125420500,22.385420654296876,-0.3891642689704895,-0.7190287113189697,0.2498500496149063
1774158182145413600,22.40541357421875,-0.3397248089313507,-0.16914668679237366,-0.06953007727861404
1774158182165405400,22.425405517578124,-0.26247289776802063,0.2973826825618744,-0.009967146441340446
1774158182185398500,22.4453984375,-0.1899086833000183,-0.033663153648376465,-0.019863186404109
1774158182205390300,22.465390380859375,-0.09851112961769104,-0.48342180252075195,0.0003121224872302264
1774158182225383400,22.485383544921874,-0.1265568733215332,-0.7986570000648499,0.16179315745830536
1774158182245375700,22.505375732421875,-0.1872684210538864,-1.0062676668167114,0.3186379075050354
1774158182265368600,22.52536865234375,-0.1355663537979126,-1.0394985675811768,0.24740180373191833
1774158182285360600,22.545360595703126,-0.04440368339419365,-0.9509503841400146,0.06202076002955437
1774158182305353700,22.565353759765625,-0.11655803769826889,-0.8423168063163757,0.012230301275849342
1774158182325345500,22.585345458984374,-0.18502870202064514,-0.721392810344696,-0.027088342234492302
1774158182345338600,22.605338623046876,-0.13105416297912598,-0.39210280776023865,-0.15186409652233124
1774158182365330400,22.625330322265626,-0.031735293567180634,-0.26746153831481934,-0.21604494750499725
1774158182385323500,22.645323486328124,0.10218788683414459,-0.506658136844635,-0.3712286651134491
1774158182405315600,22.665315673828125,0.29609689116477966,-0.22099922597408295,-0.6539615988731384
1774158182425308400,22.685308349609375,0.314483642578125,-0.1515413224697113,-0.5601552128791809
1774158182445300500,22.705300537109373,0.2637203335762024,-0.23389504849910736,-0.5160388350486755
1774158182465292500,22.72529248046875,0.2819552421569824,-0.39400455355644226,-0.32967376708984375
1774158182485285600,22.74528564453125,0.22037072479724884,-0.5618907809257507,-0.059837765991687775
1774158182505277700,22.765277587890626,0.10631471872329712,-0.5951067805290222,0.28592389822006226
1774158182525270500,22.7852705078125,-0.037083983421325684,-0.4155133068561554,0.602972149848938
1774158182545262600,22.8052626953125,-0.05205787345767021,-0.38523024320602417,0.6451848745346069
1774158182565255700,22.825255615234376,-0.03867762163281441,-0.4373863935470581,0.3867596983909607
1774158182585247500,22.84524755859375,0.04483378306031227,-0.40383535623550415,0.14950346946716309
1774158182605240600,22.865240478515624,0.07758667320013046,-0.39240026473999023,0.1019095852971077
1774158182625232400,22.885232421875,0.0681670680642128,-0.44768163561820984,0.1237669512629509
1774158182645225500,22.9052255859375,0.08644034713506699,-0.44795647263526917,0.1639692336320877
1774158182665217500,22.925217529296877,0.13343475759029388,-0.38787662982940674,0.21819065511226654
1774158182685210400,22.94521044921875,0.16995574533939362,-0.3451480567455292,0.2227121740579605
1774158182705202700,22.96520263671875,0.18406997621059418,-0.26841333508491516,0.24314287304878235
1774158182725195500,22.985195556640626,0.15619386732578278,-0.21216897666454315,0.27026504278182983
1774158182745187600,23.0051875,0.12314030528068542,-0.18310484290122986,0.3397463858127594
1774158182765180700,23.0251806640625,0.06317684054374695,-0.2021312564611435,0.45893535017967224
1774158182785172500,23.04517236328125,0.033720411360263824,-0.05873628333210945,0.46105897426605225
1774158182805165600,23.06516552734375,0.09379067271947861,0.19320301711559296,0.19123387336730957
1774158182825157600,23.08515771484375,0.1298978179693222,0.2925136089324951,-0.020557472482323647
1774158182845150500,23.105150390625,0.15466387569904327,0.25274544954299927,-0.08537322282791138
1774158182865142500,23.125142578125,0.2341347336769104,0.04874490201473236,-0.022411566227674484
1774158182885135600,23.145135498046876,0.37175092101097107,-0.17221491038799286,0.087831050157547
1774158182905127700,23.165127685546874,0.48622557520866394,-0.3251759707927704,0.04807458445429802
1774158182925120500,23.18512060546875,0.5307472348213196,-0.49525129795074463,-0.16654929518699646
1774158182945112800,23.20511279296875,0.6189897656440735,-0.8344082832336426,-0.10425902903079987
1774158182965105700,23.225105712890624,0.5221918225288391,-0.7262152433395386,-0.22834768891334534
1774158182985097700,23.24509765625,0.34087690711021423,-0.6031804084777832,-0.2540533244609833
1774158183005090800,23.2650908203125,0.135908305644989,-0.16820845007896423,-0.37585166096687317
1774158183025082600,23.28508251953125,-0.04626922681927681,0.3220544755458832,-0.4732075035572052
1774158183045075700,23.30507568359375,-0.18209336698055267,0.6150442361831665,-0.49093058705329895
1774158183065067800,23.32506787109375,-0.20788715779781342,0.7698226571083069,-0.2715175151824951
1774158183085060600,23.345060546875,-0.1334022581577301,0.7495037913322449,0.04360499978065491
1774158183105052700,23.365052734375,-0.19507068395614624,0.7129220962524414,0.3278191387653351
1774158183125044500,23.38504443359375,-0.3094435930252075,0.9290826320648193,0.42056265473365784
1774158183145037600,23.40503759765625,-0.36788880825042725,0.9132879376411438,0.02929716929793358
1774158183165030000,23.42502978515625,-0.32792913913726807,0.7733984589576721,-0.3379881680011749
1774158183185022700,23.445022705078124,-0.40789321064949036,0.6773023009300232,-0.13094203174114227
1774158183205014800,23.465014892578125,-0.4849994480609894,0.5321826934814453,0.09116826206445694
1774158183225007900,23.4850078125,-0.4943985342979431,0.36606958508491516,0.14210893213748932
1774158183244999700,23.504999755859377,-0.5044061541557312,0.3210395276546478,0.031259652227163315
1774158183264992800,23.52499267578125,-0.5127948522567749,0.3542387783527374,-0.038415830582380295
1774158183284984600,23.544984619140624,-0.5159227252006531,0.26169711351394653,-0.008592156693339348
1774158183304977700,23.564977783203126,-0.4673994183540344,0.1049083024263382,0.06300266832113266
1774158183324969700,23.5849697265625,-0.35332050919532776,-0.1408894807100296,0.11511460691690445
1774158183344962600,23.604962646484374,-0.32519274950027466,-0.2938002049922943,0.05735223740339279
1774158183364954600,23.62495458984375,-0.3696456849575043,-0.604983389377594,0.10809637606143951
1774158183384947500,23.644947509765625,-0.3718723654747009,-0.10345182567834854,0.0519271120429039
1774158183404939800,23.664939697265623,-0.37613287568092346,0.03677133098244667,0.05895066633820534
1774158183424932600,23.6849326171875,-0.25067776441574097,0.07336156815290451,0.04493178799748421
1774158183444924700,23.704924560546875,-0.02852644957602024,-0.019391540437936783,-0.1311444342136383
1774158183464917800,23.724917724609377,0.24721725285053253,-0.20268307626247406,-0.3540201187133789
1774158183484909600,23.74490966796875,0.44142401218414307,-0.2185983806848526,-0.23685568571090698
1774158183504902700,23.764902587890624,0.48703089356422424,-0.31875666975975037,-0.10201132297515869
1774158183524894700,23.784894775390626,0.4637351632118225,-0.2188923954963684,-0.11881852895021439
1774158183544887600,23.804887451171876,0.32822129130363464,0.14749625325202942,-0.06962834298610687
1774158183564879600,23.824879638671874,0.23451928794384003,0.06586743146181107,-0.09978358447551727
1774158183584872700,23.844872802734375,0.15512646734714508,-0.09740538150072098,-0.062246061861515045
1774158183604864500,23.864864501953125,0.05571572482585907,-0.26489877700805664,0.07630888372659683
1774158183624857600,23.884857666015623,0.010641725733876228,-0.23197011649608612,0.19612184166908264
1774158183644849700,23.904849609375,0.02851899340748787,-0.0916774570941925,0.17170171439647675
1774158183664842500,23.924842529296875,0.08682437986135483,-0.05656607449054718,0.10189653933048248
1774158183684834800,23.944834716796876,0.1577177196741104,-0.1022866889834404,0.09524688869714737
1774158183704826600,23.96482666015625,0.19923187792301178,-0.08938953280448914,0.044557880610227585
1774158183724819700,23.98481982421875,0.20753934979438782,-0.15562129020690918,-0.006454969756305218
1774158183744811500,24.0048115234375,0.2018340528011322,-0.21103687584400177,-0.038178279995918274
1774158183764804600,24.0248046875,0.1833953857421875,-0.27221500873565674,0.015968846157193184
1774158183784796700,24.044796630859373,0.1583600789308548,-0.20767968893051147,0.06123992055654526
1774158183804789500,24.06478955078125,0.12515924870967865,-0.16751256585121155,0.11879429221153259
1774158183824781600,24.084781494140625,0.08502008765935898,-0.08902974426746368,0.1639210283756256
1774158183844774700,24.104774658203127,0.003385676769539714,0.00603498937562108,0.22028763592243195
1774158183864767500,24.124767578125,0.00467651104554534,0.05029140040278435,0.19068339467048645
1774158183884760300,24.14476025390625,0.049428801983594894,0.14792580902576447,0.14203916490077972
1774158183904752400,24.16475244140625,0.07784739136695862,0.3332376182079315,0.03092515841126442
1774158183924745500,24.184745361328126,0.10146936774253845,0.5209825038909912,0.08759056776762009
1774158183944737500,24.204737548828124,0.13795307278633118,0.5053236484527588,0.24795174598693848
1774158183964730600,24.224730712890626,0.1820017546415329,0.343365877866745,0.35406139492988586
1774158183984722400,24.244722412109375,0.1689131259918213,0.34109607338905334,0.31252914667129517
1774158184004715500,24.264715576171874,0.1544782519340515,0.05572664365172386,0.16725769639015198
1774158184024707600,24.28470751953125,0.24178946018218994,-0.17815855145454407,-0.3357148766517639
1774158184044700400,24.304700439453125,0.5019952058792114,0.23190779983997345,-0.4926674962043762
1774158184064692500,24.3246923828125,0.5702709555625916,0.32622843980789185,-0.5572933554649353
1774158184084685600,24.344685546875,0.49764519929885864,0.12318078428506851,-0.6240164637565613
1774158184104677400,24.364677490234374,0.2655472457408905,0.26699626445770264,-0.660727858543396
1774158184124670500,24.38467041015625,-0.01756328158080578,0.6969265937805176,-0.6168981194496155
1774158184144662300,24.404662353515626,-0.20577873289585114,0.974765419960022,-0.42990848422050476
1774158184164655400,24.4246552734375,-0.3520384728908539,1.0814026594161987,-0.16915972530841827
1774158184184647700,24.444647705078125,-0.2789943516254425,1.078986406326294,0.1610059291124344
1774158184204640500,24.464640625,-0.18746577203273773,0.45211419463157654,0.39274755120277405
1774158184224632600,24.484632568359373,-0.19374629855155945,0.38398122787475586,0.4329695403575897
1774158184244625400,24.50462548828125,-0.29951587319374084,0.6124207973480225,0.3220278322696686
1774158184264617500,24.524617431640625,-0.42014482617378235,0.4896429479122162,-0.0036884781438857317
1774158184284609500,24.544609619140626,-0.49666622281074524,0.626055121421814,-0.24139957129955292
1774158184304602400,24.564602294921876,-0.51785808801651,0.8096017837524414,-0.20059435069561005
1774158184324594400,24.584594482421874,-0.49618420004844666,0.6020698547363281,-0.06489404290914536
1774158184344587500,24.60458740234375,-0.4905761182308197,0.47987446188926697,0.19348344206809998
